,speed_x_mean,speed_y_mean,speed_z_mean,speed_x_std,speed_y_std,speed_z_std,speed_x_var,speed_y_var,speed_z_var,acceleration_x_mean,acceleration_y_mean,acceleration_z_mean,acceleration_x_std,acceleration_y_std,acceleration_z_std,acceleration_x_var,acceleration_y_var,acceleration_z_var,jerk_x_mean,jerk_y_mean,jerk_z_mean,jerk_x_std,jerk_y_std,jerk_z_std,jerk_x_var,jerk_y_var,jerk_z_var,angle_xy_mean,angle_yz_mean,angle_zx_mean,angle_xy_std,angle_yz_std,angle_zx_std,angle_xy_var,angle_yz_var,angle_zx_var,x_range,y_range,z_range,time_range,label
0,0.5565784187827769,0.552057389422233,0.5148940839111062,0.13092918900941905,0.42269759845268173,0.22811487746746467,0.03372501923981102,0.2780785924223361,0.11795964344836952,0.6346449207543764,0.46626440247463496,0.4507432734432467,0.05253670924915478,0.22914141878854363,0.15450668252615318,0.016637951979084093,0.12386694986511801,0.07573897021031352,0.6857302906543954,0.4527003219376884,0.4205768445148139,0.06059771547032361,0.25505888380601494,0.18081201442008485,0.018703564235337616,0.13753596894939193,0.08859512501888853,0.507757898636271,0.09045216997763321,0.0,0.0001638294602247276,0.0033684733638249106,0.756303881426852,3.75261388181564e-08,1.1778401898908404e-05,0.5720002874334629,0.381102810620026,0.5207790752335554,0.3749574474710589,0.655869274122021,Happy
1,0.7826411449369913,0.7930956900097973,0.5469675051874777,0.1963455548514363,0.6701927230411999,0.28898710786070575,0.061547483515133505,0.5391984921001904,0.16044222266889915,0.6298569858272761,0.5589518313161284,0.4045259960764845,0.28486071091133197,0.7506718551949239,0.3548338489699556,0.1379419191297006,0.639122724833943,0.21679942694636,0.687561694050161,0.41840770920201,0.40396964783148154,0.2931722804274888,0.7736005651808371,0.3680166552595142,0.1406680080436361,0.6652696851736889,0.2232152699111261,0.5070247507862318,0.09543747967345337,0.33020139051632197,0.00016233563431104054,0.0025435784287676636,0.001134379174478824,3.694148350863659e-08,6.7961107002097155e-06,1.3158729448747437e-06,0.41180941164569146,0.49599872532112904,0.3572244196213015,0.5626981866860042,Happy
2,0.6044345550206763,0.6725092801621392,0.5594131859863491,0.1353863921163355,0.8069716461938421,0.40694981043410117,0.0353886175070257,0.7146567872861671,0.2559657307292392,0.5690689369304868,0.6164870257271765,0.4148221897304339,0.10710747344130155,0.8702321006784853,0.34892434340038037,0.038135425917703615,0.8029271324316494,0.21194549439477,0.6759547701364178,0.4414914436723,0.4382511575774324,0.11594512623190008,0.8715954906827826,0.3677483063953832,0.04050936920406645,0.8023716956737599,0.22299106688619894,0.5110869101836463,0.07870023656325228,0.31913632955543136,0.00015558338852437065,0.009340965983251856,0.012684178301542491,3.4354457633123665e-08,8.844384544871167e-05,0.00016120952436470578,0.23981809129362458,0.5345329729663485,0.3767473799254184,0.40645880559321645,Happy
3,0.7936732314053391,0.5943224967321818,0.32948040113313815,0.24877767920590277,0.7793257327753387,0.2897442886877423,0.08912612555413585,0.6774049061234159,0.16099985081903392,0.5693079292740976,0.5198824303679671,0.3757745319260527,0.2107046433903518,0.528090202658624,0.24289632446843404,0.09076360338559222,0.37956099842349905,0.13201278440467248,0.687749960608497,0.4559968278790923,0.4356618268374138,0.2139102942129151,0.5351888118355281,0.2593183863382777,0.0901591205179308,0.3813224257834817,0.13973675206983,0.5099190957712041,0.09110717164107336,0.3505672076275838,0.0002096064107238322,0.004557182273861782,0.07866567151312288,5.7606145341226134e-08,2.135137774891182e-05,0.006190146472671783,0.5533777356132911,0.773047291239639,0.46351517504164863,0.5627606984106789,Happy
4,0.6124865132892985,0.6554413509321924,0.4753002424937691,0.27408808836303566,0.7501632722058919,0.41697061879277875,0.10412002013674403,0.6390913447656839,0.2648826877609088,0.5256443022019249,0.5294459829719109,0.35500768408111355,0.1998073237725917,0.6682530527968077,0.3766695269708064,0.08449914015471627,0.5361257295989527,0.2351000489637213,0.6983262147302194,0.4429855494105125,0.4427069573497569,0.20887996995594293,0.6908158464353819,0.39141723654460414,0.08726565179091895,0.5587046356906601,0.24311107171187515,0.5137631955707588,0.09167336069993208,0.31510475461622406,0.00013585639741056104,0.00032191315139736487,0.01764984459982106,2.7318666256980655e-08,1.4501878210068804e-07,0.00031196163560816693,0.44250171299513635,0.49035727588185024,0.3541362759746557,0.4064388030337235,Happy
5,0.6401977984447798,0.5297365537587327,0.6221009165107677,0.2513131431355301,0.9017221307513401,0.4592053252379313,0.09057880555757925,0.8492026179902071,0.30384569504869113,0.5321701642270574,0.622081626451347,0.37926643978921926,0.20506431436276512,0.6101153712183137,0.4118023241515975,0.08749980393686274,0.4683425994506491,0.2657518797953342,0.6636419007221136,0.4790612857514247,0.4462091037946937,0.21417839854665432,0.6201918791360288,0.4265426240520173,0.09031438096145833,0.4744949239162139,0.2742554984899367,0.5136931197792596,0.09391044429420017,0.30939130754000965,0.00015159947985682898,0.0015604641480342597,0.018658244218219776,3.287084938443532e-08,2.6354399500390906e-06,0.00034859961885106946,0.3786460275276681,0.5624290603052391,0.3926354944810278,0.37519505849138907,Happy
6,0.5869176584620798,0.5745377863601925,0.5995645985597882,0.24423790655301283,0.9165507816227296,0.3644991644022719,0.08655252698117284,0.8712223144616058,0.21958477222954986,0.46103061605349127,0.6138935782418833,0.40217226506919046,0.08320986017382265,0.5805059503840018,0.18369751637861706,0.028192609762269668,0.4353692548988167,0.09328153769075419,0.6596359907303707,0.4621262732075373,0.4611155789866567,0.08895582982799335,0.5841684305513835,0.19134869426308107,0.029312843387531384,0.4339180104367346,0.0950131833332908,0.5143829540798559,0.07893535060667992,0.38894429799788266,0.00015052252776350935,0.015836077698650315,0.10630754739228938,3.2475242195253154e-08,0.00025278591658577337,0.011303730957225686,0.33612547637478485,0.5945590705590494,0.3223688396922564,0.37513753995406923,Happy
7,0.5647506664468813,0.49624225070069083,0.5275787025339678,0.27803397717672557,0.9105204288623617,0.46403410635983455,0.10655618423805988,0.8622361426124805,0.30844259015475617,0.4997704071956625,0.5847921030986374,0.3891785709179585,0.23345753605035557,0.7159925893223036,0.3565040497052324,0.10439557139801516,0.5947980786047793,0.21817892487522636,0.7117071780454638,0.4331166070664456,0.4262383411013915,0.2404271157667488,0.7271390282884007,0.37284807036993484,0.10602737480540383,0.6044179870995103,0.22726721305991834,0.5149132508138403,0.0920111879449147,0.2368392118887051,0.00017279092800193328,0.00045254882080254013,0.1493942531679034,4.1127177080722917e-08,2.6298031049327827e-07,0.02232190158556779,0.31086964177300236,0.6906399070828032,0.35507502312280825,0.3749524790161674,Happy
8,0.5922462656633143,0.6147486258787296,0.4790139493855333,0.24597077200267484,0.8781121945565847,0.4171151753798559,0.08753073381567646,0.8146810578949202,0.26501223988987826,0.5454474699446367,0.509783001160046,0.33846691920521355,0.22600466106574857,0.5443079416817411,0.3680803781725606,0.09984808391777684,0.3964785190036214,0.22783282518930892,0.6919708424263598,0.46076197165242,0.42314814360454706,0.23759157884172002,0.5576451139717257,0.38793039951283176,0.10428110849763758,0.40506817972251175,0.24010323945676978,0.5144309506679376,0.08568521165950946,0.3198752283902305,0.00016742052604994383,0.005111679810459809,0.009750961426064556,3.894987329353068e-08,2.678336710767839e-05,9.532886252984303e-05,0.38297050388302883,0.6339311570382159,0.35619004551488465,0.40642565679119536,Happy
9,0.6905547025332125,0.5345256640898862,0.5583503845447395,0.055142327252670285,0.06669304181065877,0.40862300115864464,0.010633644731544167,0.029804009982651286,0.2574458717007178,0.5984666115701138,0.42901357589985534,0.4322430700230458,0.008191359491889165,0.03235416350753135,0.2845326683077546,0.0023321634459125165,0.013695034889374607,0.1617851471726261,0.6844560086772338,0.4633707722841627,0.4388173485147058,0.011018285069475215,0.05473457300833607,0.3052240333206438,0.0029987757013155464,0.022732680456924385,0.17319692116305838,0.5133378728736369,0.0918364635430678,0.3164608311166936,6.24882403747338e-05,0.0009325253411621783,0.00016109011596726218,7.981091862435153e-09,9.89431811131193e-07,3.0080328344773334e-08,0.24972449970335334,0.2576528438386072,0.6087759447494151,0.7495423930102293,Happy
10,0.6329960273882711,0.6068654204052039,0.4890803264340812,0.04830361944212639,0.3205810053523408,0.34563368958328383,0.009032675042020346,0.19149840707794014,0.20414039601203957,0.6014176710989878,0.4114220298594035,0.4392283657892564,0.053940082367202324,0.32183319327008936,0.3140786583316002,0.01713698216949626,0.19175271841901115,0.1841803402651349,0.6841241709379207,0.4702191512446138,0.43098707914228357,0.056654274875396544,0.3428316935527624,0.3348851363772119,0.017321996556803304,0.2034782423702445,0.19621206473942532,0.5160546007377841,0.09241233369732527,0.31666302121659085,0.0001355009241344994,0.0022978077896888597,8.035460098366215e-05,2.719902214370683e-08,5.574782468067981e-06,8.517296442975177e-09,0.14881621604198775,0.46036963742871756,0.4414144318134728,0.5625793935420709,Happy
11,0.661328306027986,0.5197458951567506,0.5102095490031918,0.04580109193497722,0.2272726822300425,0.3519251119930351,0.008466792961123909,0.12319305428917703,0.20924143011587723,0.5943605960756103,0.41630813954824974,0.4425366180058884,0.0811866662243381,0.3591549156171973,0.3286446894657444,0.02738866341496443,0.22197844579052858,0.1956084890570323,0.683324784828934,0.46167583101374765,0.43605535943489937,0.08248807387746518,0.37931056592467527,0.3508140821539531,0.026788943658903174,0.23368774246406857,0.2090240442315526,0.5149984749395119,0.09218242685291102,0.3169244564893713,0.00012220557309145888,0.001304932955700325,0.00020929250501293585,2.2905594019046227e-08,1.8704697100818998e-06,4.9169291816525645e-08,0.1703493448431508,0.4525438545142345,0.623138900511413,0.8128144683312234,Happy
12,0.6478265554484695,0.5273891966930896,0.5606373500814315,0.0102189459713129,0.37187638891508734,0.3371852041796823,0.0015784535588547243,0.2334445616072021,0.19736833906492154,0.5972656179291691,0.42795125113118493,0.43088948146718126,0.017179857810476415,0.2710380228674278,0.2783357259732992,0.005002648545043721,0.15328289003892945,0.15722155931864196,0.6789833145248028,0.46079268867824624,0.4404862765125156,0.01804981924094603,0.27314059126066526,0.2992336843000854,0.005005907727680285,0.15034102975498548,0.16868175090665435,0.5146039053909839,0.08997263739274652,0.31703955508607146,0.00017729215883072798,0.0012588009199042379,0.00019541883800111386,4.299652737636007e-08,1.7462812189551107e-06,4.3198831366883405e-08,0.13237571866005046,0.7256305971046161,0.5569627765650351,0.812767577085199,Happy
13,0.584884668641006,0.5281506361340645,0.5103912755339995,0.06621250149627088,0.37722102300648375,0.28932431786000895,0.013394580239405384,0.23799447349582292,0.16069047341369905,0.6018387718374401,0.41425501537614395,0.439543180976423,0.010351691520815231,0.23198104268911957,0.32685854839769357,0.0029633601725400647,0.12579457205138814,0.19419336317465663,0.6830668937873668,0.46417971505356287,0.4386877628661907,0.018072181388893136,0.25332733822028497,0.351675106959347,0.00501240702931712,0.13633094731257164,0.20972558470451658,0.5166265761387557,0.08363523237027737,0.31713779794757374,0.00016311789171954776,0.012175964944680807,0.00012932516639190848,3.724708772224359e-08,0.00014980111021076106,2.0040962986734947e-08,0.21172661890521463,0.5481857155585887,0.49731164586810567,0.687744440741702,Happy
14,0.6916464467052315,0.5839538044319857,0.5062948953688584,0.11223189127096661,0.33611764852854514,0.4474415871829026,0.027116308899430005,0.2038740471255997,0.29276898254370215,0.5937788069993323,0.4148759964810538,0.4538819470163992,0.09123167853348875,0.24128672784638774,0.3593625233961391,0.03143831270940251,0.13217891120713712,0.22054767916038545,0.6808340438478284,0.457849238531164,0.4421397792763876,0.08587804905528829,0.25941823607855874,0.37763823374487604,0.028104128469511973,0.14058616395677595,0.23131325412594442,0.5159226041354773,0.08986224861096383,0.3191767056665955,0.00016262137240729839,0.003966567698905331,0.0004009060130324883,3.705297084021154e-08,1.6241810233499436e-05,1.71002277279417e-07,0.34157938833428836,0.6343546445191632,0.5250320840573913,0.6252269478177938,Happy
15,0.6008026296084708,0.5472270678524565,0.5537070032539,0.12548903815231638,0.45078158017244774,0.505410601872021,0.031740543709659105,0.30405679455165097,0.3490281539418628,0.5988982397485847,0.41901321709291933,0.4506305017015129,0.07572891579589107,0.3187980817538526,0.46000583121300526,0.025249390590805314,0.18936767623985515,0.3102294986613002,0.6850605461196615,0.4536868888686023,0.44019546571773605,0.08108143386818353,0.3404153142315998,0.48847690531943805,0.026248184939100454,0.20153528238401577,0.33291298044432044,0.5161089489395494,0.08610835825260259,0.3203275999591632,0.00014769008479507324,0.007304399253698757,0.0006582879260033064,3.144584604442654e-08,5.428686804581257e-05,4.50212907847713e-07,0.244023167950828,0.586590358165768,0.596436369379032,0.5627188003520093,Happy
16,0.6673442555389746,0.5146008810659486,0.5626835142379845,0.08071667755342059,0.36169222254343664,0.40837912423174666,0.017328843514379962,0.22486845839120578,0.2572299147868186,0.6117590630675218,0.480234179243276,0.43247600927263624,0.04612350877864892,0.23586437453732775,0.3510000195469411,0.014393613434846273,0.1284462546086939,0.213645608996878,0.7266389011334724,0.5482771276599369,0.4464233339360296,0.05407556390136635,0.2532414416538111,0.36999542122500595,0.016430933785120633,0.13627126651397775,0.22487127914080624,0.5148466914767098,0.09206360029033495,0.31749216842680433,0.00012124202473443473,0.0015132389384987265,0.0003021853389492864,2.2608176459917846e-08,2.484228305038046e-06,9.906282833030222e-08,0.26347417633447245,0.5897456446832307,0.5518248247683445,0.7503319575288725,Happy
17,0.6494541776743132,0.6062164010565587,0.527510696073632,0.019306935385626743,0.488244576660261,0.41595388352566626,0.0031321062801063695,0.3401660415411083,0.2639722246538698,0.6151745468745234,0.5101448588015073,0.4244234617040797,0.022093689362887633,0.3453864845081649,0.26931283458796906,0.006511816796974787,0.21063453507472576,0.1506596729061175,0.7129606367190497,0.413631881102951,0.4116384717735398,0.024208979568642475,0.3631607933463571,0.2870692254427199,0.0068238138943211984,0.2201104504421104,0.15965039647508825,0.5145701404659577,0.09137833432977431,0.3178886574141333,0.00014582064880743685,0.0014481477049669712,0.00025514934507104344,3.077522528587777e-08,2.283120841717518e-06,7.164252653019443e-08,0.07306214417111442,0.641048864077562,0.5353035965787033,0.6258583549901034,Happy
18,0.5011778659380759,0.7621232729474694,0.3999257766557361,0.3418682015555725,0.30083211496549395,0.6282562506340914,0.14966313312596236,0.17618050379499303,0.48214644951108215,0.5380041824451912,0.4728749099217886,0.37379916607493086,0.39564537392918336,0.2821054779813229,0.5868876543730086,0.22319978141024155,0.1614027991079337,0.4406989110422062,0.673401804055726,0.44503780245774255,0.4653532648943335,0.3785851349878225,0.2703436809937448,0.613528869379114,0.20544780015204508,0.14833387821176017,0.4659066702535664,0.5185939264418957,0.08991542781923346,0.3164251050103371,5.171159938569407e-05,0.001489259299900177,7.852235797644172e-05,6.047442112123766e-09,2.4091545141389495e-06,8.179216973658458e-09,0.22198946751420795,0.12184214818584256,0.3423369488189109,0.24958801732811892,Happy
19,0.6499039055607594,0.4181522121119167,0.5194299659250047,0.18555740816195268,0.17650837573830244,0.8062072206390664,0.05645568804141303,0.09036602231758809,0.708464790741986,0.5647999023981831,0.4754580376781554,0.35536579428156767,0.13731347382757877,0.11885078863938608,0.6974197525520589,0.05188152264885099,0.056434739514891495,0.5701791836295996,0.7475986803365482,0.483844139421696,0.38914399402278615,0.1383478675976022,0.134580975179918,0.7089019146903897,0.05061749592335326,0.06254154590962814,0.5804249972002328,0.5177008302290006,0.10098664363831107,0.3175268776827708,5.489395846739588e-05,0.00923172745447373,0.0001421894636759255,6.594285777913997e-09,8.640120257891529e-05,2.3863608250821277e-08,0.15243457079622208,0.15240701349393151,0.34728701134001655,0.18773816572117558,Happy
20,0.618001272297359,0.599066398453345,0.4432679626849472,0.16786116701690834,0.40782032750025377,0.8448906034573671,0.04853401339059627,0.26469562654171014,0.7629050288394968,0.6318156813901775,0.3609805425102063,0.20455676269829964,0.14407047524159258,0.33243380158355285,0.8141388942942128,0.055136613267216576,0.2001690061450453,0.7229004640531076,0.6675019938394869,0.46028025862475763,0.4507437640728515,0.1536774750935973,0.34932422823091946,0.8207223459914296,0.057959908562671664,0.20873453008990359,0.7291167449367876,0.5158536562742726,0.09760469671661398,0.3190138591573978,6.205800585977074e-05,0.005186139014158098,0.0002404750936778913,7.899443910107756e-09,2.7559612718543977e-05,6.399349134464724e-08,0.12316312558624283,0.2875531043595085,0.3505721781336255,0.18824517545568498,Happy
21,0.5602503003006362,0.5771912621320212,0.5778186354096828,0.2092445538574586,0.41395390069509286,0.9224349592060419,0.06789657315249259,0.2701813470200693,0.8776738710649522,0.5415751855522338,0.5045043143869755,0.11949590475019575,0.17521109479716854,0.3302387317887818,0.9323848657809787,0.07098929479010953,0.1984152473866384,0.8943720610116728,0.6922715996188743,0.4376670526252463,0.6722583869365575,0.17667914943096477,0.3327983495725098,0.9391789437810314,0.0696258772625822,0.19545791092462889,0.903615655112787,0.516905645015527,0.09083370052575361,0.31841279166048275,4.894545720011313e-05,0.000517905704011812,0.00016968736512671488,5.588572794982635e-09,3.348041495848933e-07,3.314449827892512e-08,0.10801085786694636,0.1801740049002891,0.30602118356937713,0.12644974213839047,Happy
22,0.5493292129141696,0.5132947475794787,0.7542053966116015,0.160394199074513,0.3150980295389241,0.881804635365733,0.04535195586140452,0.1871992704784751,0.8166010197062433,0.48144603568186556,0.45248566804277257,0.18146466950944906,0.16980464734649703,0.2706710262117955,1.0,0.06813670685825107,0.15301613501763253,1.0,0.7044641355211573,0.4716606969295143,0.4488919946742228,0.17924770870729118,0.2885906924153945,1.0,0.0709769327694984,0.1616028871189665,1.0,0.5168630591019374,0.0914057578907521,0.3194048328659194,4.180391154631159e-05,0.00047199482693669435,0.0002698617733307197,4.474628892063577e-09,2.834577985178139e-07,7.97437999489169e-08,0.07305000607060323,0.13210712625981855,0.3150328747227313,0.12506750863828864,Happy
23,0.6234580979650106,0.43970455094065874,0.469084236492305,0.15301740058229824,0.5045047894261955,0.7131185841742421,0.042301865859752354,0.35635638371393497,0.5851324189791656,0.4630892574022565,0.6081840039956532,0.464555655758489,0.10011809410270209,0.3934151354559145,0.5409971478141176,0.03514220229848188,0.25118638854260833,0.39126979552350527,0.5697449633322501,0.590347807773304,0.4704423128931951,0.10472860260395071,0.41325397215483284,0.5534332447671281,0.03572598738198792,0.2632760442084051,0.39956420540938414,0.5159998707156996,0.08890788503614663,0.3170242035203202,9.310588174442092e-05,0.0013543399987245444,8.94893067738677e-05,1.4742119504368135e-08,2.0081942915214206e-06,1.0302979672150399e-08,0.08974517505779778,0.34860706148646026,0.3129845769727384,0.18903788493710982,Happy
24,0.5131814183486624,0.7598116201528797,0.5044939666683379,0.15952994496061085,0.39612811116540964,0.7658338724797267,0.04498980388012071,0.25436190937041686,0.6536430061561433,0.6028783192297474,0.4689447754560504,0.38444152169107465,0.13096884326893382,0.3192454837849618,0.5847972459607244,0.04888503544864185,0.18971856234027457,0.4383921042374635,0.7444287892891286,0.3685512069294951,0.4781327422180477,0.1283240365676542,0.32508640994748006,0.6038721981674183,0.04600341985747259,0.18937788127354002,0.4549429594979722,0.5162537358482044,0.09254293047056136,0.317195907541859,6.67038391696391e-05,0.0009423749376024996,0.00010896551818378029,8.800692748101526e-09,1.0091632887956134e-06,1.4667473431323222e-08,0.07957072372638606,0.1915659243721315,0.3213281949121318,0.18759002455962548,Happy
25,0.7157723932823524,0.4784927591594443,0.7782863191468081,0.15188821044297382,0.17658618842626625,0.5182487098014054,0.04184318395134237,0.09041400293166073,0.3620562830397899,0.6120499266120663,0.3957115446954486,0.6487532501548862,0.25147121007366435,0.3236407141219042,0.3856156856381163,0.11571774101955185,0.19317831586873233,0.24276392553017967,0.6701309945850825,0.4486857322831624,0.6502115824916859,0.25780658529830874,0.337603344365516,0.39164780788392145,0.11698908336831525,0.1992833299193726,0.2433105019138875,0.5166352638575888,0.09043993939065728,0.31596898897444353,2.344325492786333e-05,0.0005296939849778562,2.7435283694791712e-05,2.078925877270065e-09,3.4866815342841945e-07,1.456221375398185e-09,0.1130141836883082,0.07565249767301375,0.14298443267135028,0.18897912928172897,Happy
26,0.49412682462733915,0.7613303536355343,0.8609798676708614,0.2473378686877529,0.31448565056718947,0.5543540560946139,0.08830608361338776,0.18672132349119264,0.39980155263677114,0.5730038206385819,0.4447795862216218,0.36464298401646517,0.3644004891690989,0.45007656399632806,0.44427360311639086,0.19736195834451034,0.3025625170586498,0.2954052714585625,0.7031698532290167,0.43180277459544736,0.4508485485749694,0.37735987945006383,0.4782271183923611,0.46300189294369815,0.20444261413137807,0.32388805602920917,0.3082075335195954,0.5168666528907079,0.09491175546341686,0.31632673935725436,5.578674053870482e-05,0.007286161874118974,4.5505694983860146e-05,6.751335800404667e-09,5.4018463001778786e-05,3.2376557034657218e-09,0.14448145869869278,0.1844065564528822,0.208092570603781,0.25012440489031873,Happy
27,0.6068043348038394,0.24410549221493702,0.6619855188154408,0.059763305504076755,0.13791904960131735,0.5493250220074416,0.011760672424831623,0.0674554975610524,0.3944463256053425,0.5404263231226176,0.6569051613105094,0.3620531512957451,0.07894612514143323,0.21092124090238734,0.4380096420818488,0.026505240588327303,0.11172723697781771,0.28958591928477223,0.7122924222403682,0.4031935951542283,0.41245929384294244,0.08520045006246157,0.23177530411654865,0.44744443951479185,0.027839892560967056,0.12164278374001566,0.29351748424133584,0.5160623938835995,0.09013457796308942,0.31623882829478583,4.898860815723432e-05,0.004979396481906952,4.5606263322655066e-05,5.595613521492578e-09,2.5431643535085116e-05,3.2493974046609733e-09,0.05932212605134154,0.2218041472264365,0.25077968701453973,0.1876718979272072,Happy
28,0.8344893967455883,0.6079212026852447,0.8131078089517974,0.13130741413934913,0.18515793462771188,0.5187653670079,0.03386486935170136,0.09574342556016446,0.3625849040221968,0.5806163271466551,0.4780279650492053,0.43185124780096645,0.14144485505780438,0.2905790880456634,0.36608196891934697,0.053863934441724874,0.16771835767428156,0.2261547415823076,0.6420910533633084,0.5042244956089746,0.4443751991060058,0.14849928193128145,0.31198903680559065,0.38928640016478083,0.05544102689147798,0.1792205986798877,0.24127116039865334,0.5183956828421586,0.09050483866596404,0.3160055929014177,2.3744501740098916e-05,0.0007048450649286761,3.457517380887545e-05,2.1127926510846845e-09,5.873988846358035e-07,2.082052037555411e-09,0.17475257448270828,0.058846788877378736,0.2333753761254116,0.18885221289269594,Happy
29,0.4980147061268452,0.30995834293199037,0.5349431589296828,0.03492281662572444,0.2199448857808615,0.3358603659277681,0.006131298485873091,0.11826585814549792,0.1963144881152982,0.6313119790436837,0.3429365834256595,0.38067408538205405,0.03372987206969852,0.2287955178620911,0.1728175029408415,0.010224485198776398,0.12363279861922716,0.08662294491549084,0.6953757520567563,0.47119259833260796,0.4353874195763495,0.029326113925632374,0.2258661742542933,0.1789786083377113,0.008376626768044178,0.11771595741986388,0.08749248826112287,0.5154041011323367,0.09076281086316529,0.31539560799386873,5.117699401202391e-05,0.0013675326739451168,8.527001555025482e-06,5.957564674484488e-09,2.04579527916461e-06,2.913729111750094e-10,0.06548350960806588,0.1818204650698077,0.0740985263896934,0.18763001477357447,Happy
30,0.8753400305564906,0.5580918886737711,0.5586240614118485,0.2804865270353333,0.4123565203713125,0.7829537056314981,0.10808377689824453,0.2687483941459115,0.6766404749017019,0.5752866937858845,0.3877647804201521,0.46338731743962586,0.2718201827784091,0.1607276061531026,0.6659946119714528,0.12907071633844294,0.08033091693207442,0.531867994127679,0.6944249236376411,0.47299714153922706,0.4168194395503436,0.2825352062291784,0.18180794014248017,0.6914880451925438,0.13335242492084906,0.08979937430581683,0.5586702447664568,0.5156656989129814,0.08796985051394823,0.31552713111758696,0.00016277470579212114,0.00812381364972815,0.00465102991502296,3.7112864729078255e-08,6.703273376400988e-05,2.175079478430281e-05,0.7107030804210345,0.6042012947721703,0.96774982806566,0.687045513752326,Happy
31,0.5810841580299456,0.5618922324475111,0.4818240857042941,0.11875785262728981,0.42801442120575756,0.6858530647800953,0.029355108366531085,0.28292501307429974,0.5510614837472,0.5976465216576002,0.41977503812217193,0.46676570625433156,0.11418199055702331,0.3546859454159036,0.6246486436409897,0.041236865792038384,0.21827165959202283,0.48327626150149183,0.6819332261490421,0.46825309904896495,0.43991071225438827,0.12550528048557913,0.37910322712086414,0.6501607170565096,0.044732557752703114,0.23351138590485018,0.508552351620098,0.5166072399888135,0.09241774968973648,0.31458994642458177,0.00018515858620048598,0.001980515144272709,0.0035911000752583393,4.636071860874509e-08,4.1766669133581915e-06,1.2987758625131477e-05,0.2823227901165327,0.7124468786404246,0.9027971015363748,0.7502538253255476,Happy
32,0.7119473639380504,0.44492832998713555,0.525808157269541,0.1666005825196678,0.6372476886868905,0.9358213133238867,0.04799013026602506,0.5002508060300855,0.8982477300569075,0.5661705184144619,0.3712122765142136,0.4812918623689727,0.13689081140528234,0.4673485233868916,0.7874757381404648,0.051680099484595746,0.31898444600376863,0.6865652089281051,0.7000462527661906,0.4389962286379933,0.4205565775948836,0.1452522680408181,0.4970091306768922,0.810909718538447,0.05388168166538997,0.3423823823308891,0.7154453457437221,0.5190058140110339,0.097323068617552,0.3122617882399053,0.00021359322162085092,0.008228968292138086,0.008732976039861806,5.955334110478398e-08,6.876560838032363e-05,7.648686178494981e-05,0.31745802651337657,0.8608577826776537,0.9719444588872951,0.5001319095763879,Happy
33,0.669591649710243,0.6378073952588025,0.570131466193029,0.10390184059878019,0.30737851937300925,0.6906692213631231,0.02436431426525061,0.18120689380326652,0.557012102822604,0.6236006453564908,0.44231700265841634,0.3950481633648028,0.19378062543160443,0.2891808034783644,0.6131848211146904,0.08110817492863207,0.16667029058348212,0.4701684715726138,0.6963148743762022,0.4593460935258751,0.42842570274247804,0.19159948416766148,0.3082622619638963,0.6234898753719582,0.07760956386472476,0.17636918970194065,0.4773375685132841,0.5168678500848963,0.09473182979501991,0.3120081838555039,0.0002546694236964461,0.0030744682948763524,0.00981114686682645,8.146623939383102e-08,9.84657349535269e-06,9.650772983331544e-05,0.2798694196358084,0.9811191156324429,1.0,0.8752113198866251,Happy
34,0.4973702706811719,0.42889651705330367,0.60381185808067,0.06877718389271086,0.39107714615918315,0.6112074503617806,0.014064092820404508,0.24994792683552192,0.46254358174355353,0.6179426396491816,0.4636669592078651,0.4074379193988875,0.05952619641441977,0.17046977327910282,0.27251503552867323,0.019151525828228863,0.08618980776226061,0.15297723087023507,0.5975086836050657,0.33769496044292646,0.5016438511448865,0.06521597025837032,0.19158811375075402,0.2880728365556644,0.020350649546544565,0.09578901873649724,0.16038854164762964,0.5126330496904528,0.08806561755390899,0.315357526629548,0.00030470261742036935,0.003675953994710081,0.008907190580589365,1.1271561561763464e-07,1.398369601845646e-05,7.956442403205724e-05,0.3409716125887736,0.952132577602555,0.8908482579472631,0.7502238065812713,Happy
35,0.6335338760654856,0.47444481392828125,0.3675229706050873,0.2659277540207369,0.8006571084080883,0.8967422618658829,0.09916628057194843,0.7060683455729987,0.8388141861766105,0.5572264927883221,0.36821877548920223,0.49109184860765553,0.2235929222297468,0.7043727773613151,0.8092889211535792,0.09839368190693125,0.5802670751201618,0.7162273665531144,0.6687263242056392,0.4692175740827747,0.45354199393619493,0.23395585718805315,0.7388184012777019,0.843598554107984,0.10205936326925097,0.6194634516368649,0.7614544872798538,0.5183242679387401,0.09261572744322477,0.3162057989459581,0.00028425886310012356,0.0014040520791113774,0.006713765430881294,9.934212120509343e-08,2.1516959638024015e-06,4.5245657066488836e-05,0.3569540354521588,0.9816589006225669,0.9473199630372842,0.4380739091294156,Happy
36,0.6528424116632954,0.594110436061207,0.5637955271842175,0.16014375029669597,0.5301711480146631,0.8124188974438901,0.045246877949005324,0.3825501964310002,0.717080475828864,0.6131469591813306,0.36416227867327755,0.533724208740536,0.1227650691756724,0.33727962633633735,0.6309460237357267,0.045096574957001215,0.2040609297492318,0.49054415710734023,0.678361674388249,0.4382213727821524,0.48505426943791946,0.13180862076786581,0.3593845448690376,0.6536494405502256,0.04759064137827331,0.21698225827497314,0.5127009604076133,0.518275401747502,0.08244749312184196,0.3105247907540593,0.0002960726086785694,0.012819796935304295,0.01559797525372297,1.0696825960905765e-07,0.00016597492026877204,0.00024369058485440128,0.3135803577386522,0.8654539160952309,0.8402008162181301,0.5012134488624729,Happy
37,0.6640895141184313,0.2940235839473648,0.8878597706300859,0.1796990591190775,0.649449475726511,0.934706048303669,0.053773970087191904,0.5145257828827744,0.896525086608181,0.5778111208547464,0.311612423030947,0.5635674216777404,0.15675944220876598,0.486208569926793,0.8750368439382504,0.06142729997404054,0.33732244879097373,0.809104409751372,0.6868821624087516,0.5082688933438277,0.38015441741207534,0.16383956386550244,0.5183587571496008,0.9065362988183432,0.06301788375310308,0.3639349473836633,0.8537856526898783,0.5185952840613623,0.08825482385997029,0.31519438831178576,0.0003277062928475421,0.005919369495375546,0.019815677229094265,1.287630944046056e-07,3.579576985019428e-05,0.0003931591446677682,0.278241263153095,0.9597879814741306,0.8350701206679513,0.5001569202282724,Happy
38,0.5580109131439367,0.3970479495048946,0.6195094279931773,0.114707518462236,0.6138772632827582,0.8361788688754268,0.02795703293593781,0.4734022273855715,0.7504814058930663,0.5613267159644845,0.32477675222734287,0.5310614961896869,0.0913684480656897,0.5001086432497325,0.7475227031431739,0.03149445569035006,0.3511091682308449,0.6337239498736458,0.6844130009178555,0.47103651780231814,0.4341309043601491,0.09776279982831748,0.5260865827851435,0.7758331182961846,0.03284857237415019,0.37187521664306933,0.6675553302894797,0.5188271897511197,0.09091729914328324,0.30782225322652773,0.0003480863034950727,0.0011170956454872726,0.012158897828062284,1.43864393850746e-07,1.3914215066373936e-06,0.00014814680600824202,0.15657615113136888,1.0,0.8738163381170895,0.500255695907676,Happy
39,0.6024195486661028,0.6909816297528318,0.4919291075058937,0.26572670199538134,0.5834325196722537,0.49740943245936364,0.09904566781252641,0.439397457792889,0.3410128686894967,0.6337691492976189,0.42847045727261507,0.4665608687265416,0.20430162919168487,0.29868257550016,0.33593944886704574,0.08706199500083936,0.1738381179024392,0.20142793143433443,0.6775363827843713,0.473406556586754,0.43548904744971184,0.21352000926344158,0.32069175051290566,0.3551124561604964,0.08993329383017581,0.18594607644744449,0.21253544557782003,0.5267900818627992,0.09366725112502519,0.31746757251703495,0.00031887087903338825,0.0034436408782416205,0.00013292885316002257,1.2247429134340313e-07,1.2300053679172666e-05,2.1078432439942567e-08,0.4588831708192704,0.7319273536682899,0.517322903034576,0.56211677100739,Happy
40,0.719908271376982,0.5319052390541343,0.5069787549868462,0.25179295883138264,0.5600123266651118,0.5188888607854667,0.09085494923476856,0.41398628134874277,0.36271130689324843,0.599763879618804,0.4670920976140774,0.4512428894927973,0.12821764667469066,0.17863542617987202,0.2169499466626294,0.04760372831189435,0.09118774298891405,0.11451695514915682,0.6850174066580853,0.4469065351958135,0.41612991220028733,0.13236933502428247,0.1967558086814881,0.22225926105086127,0.04784771497558783,0.09900163463806046,0.11463892980816295,0.5260569899954876,0.09661833773059733,0.31987796898141535,0.00026895949030349793,0.005767996258128412,0.00039597676868221253,8.988068919668221e-08,3.400737358666887e-05,1.6694794333118623e-07,0.4635925167242774,0.6386320636229478,0.6018988357012005,0.5633164625208227,Happy
41,0.579504551767247,0.4880755397078601,0.4920374355033136,0.30174276653148613,0.629518068069371,0.5857497852560851,0.12175393194745456,0.49129915929711954,0.4339490983174939,0.6128563282456441,0.4691377681840156,0.4744852118107853,0.17493576049905,0.334359282966146,0.2787820223340119,0.07084300207889724,0.20171210496436065,0.1575486759466565,0.703296961613928,0.44777441459146333,0.428390244440335,0.18057027198873934,0.35140449143882224,0.2901453542648195,0.07167638498262498,0.21042971992928347,0.1619168253124165,0.5251345874858753,0.09025116259490557,0.320911802684112,0.00023155995993300388,0.002904494760684892,0.0004144039791065257,6.872287222907123e-08,8.808576958918583e-06,1.8235316129576286e-07,0.42038985698866305,0.6058577609801385,0.5030502505898404,0.43762628106183604,Happy
42,0.5889435524226888,0.4954059232761693,0.444300121669766,0.26670974498859507,0.6278221830504407,0.5327887203492467,0.09963606006967972,0.4893446338849538,0.377060544083967,0.6694387957516242,0.3734427674933948,0.5284628539361164,0.1870682816768433,0.37095133397391217,0.3247065517436409,0.07739309511857169,0.2318773381067064,0.19249348683933287,0.6481221159750127,0.48521592544796766,0.45542336068961975,0.1926855526164921,0.39024088915111965,0.33752197346680507,0.07820349937000413,0.24306006685208623,0.19831110606604382,0.5248139572367259,0.09133101880835931,0.3196288362347477,0.0002418064895581801,0.001076614097135237,0.00024705947210400714,7.424137546189512e-08,1.2974214796456682e-06,6.737236981537237e-08,0.38890463644542755,0.6001497025764556,0.4662785232312159,0.43769067082115753,Happy
43,0.6607326303850719,0.5472722124509641,0.5578184939755227,0.29184908651544716,0.5424715493568498,0.5602788481623082,0.1152951473537878,0.3953801435048307,0.406151239357006,0.6437383003938744,0.42943194569736315,0.48854719735213786,0.23602513064187328,0.3299344790404543,0.42881604558978276,0.10598078446522087,0.1981726167919004,0.2811305612862562,0.686402296424636,0.4791596234009642,0.42518305670050077,0.24202204517707449,0.35468627359820326,0.4443749143937897,0.10701481298104994,0.21311490224334936,0.2906546971499555,0.5251948467572097,0.0892318137392899,0.3224056861536587,0.00025252055358412727,0.001858274394206089,0.0007846750000183449,8.023623854726891e-08,3.69174831624264e-06,6.358211425275039e-07,0.4391269918015896,0.5400295347931657,0.5981800890100083,0.5002488246856743,Happy
44,0.6097192552099002,0.539114371215465,0.5938080496896593,0.2833287727391983,0.598171780061229,0.5359383412398271,0.10986695105512084,0.4557230500388637,0.38034558563111204,0.6235831111975494,0.41404695848291123,0.4858224508436465,0.22054431354194687,0.2813142149413225,0.2921944896761622,0.09656722015048418,0.1608174234693808,0.16749153431791794,0.6851942301512174,0.4603132387622567,0.4379462118716939,0.22716051054535985,0.29869265892932434,0.29310966695818313,0.09795897549438518,0.16912605122377747,0.16411201819228327,0.5258119547833937,0.02829372506094872,0.3193053948300607,0.0002742575730549457,0.07405876229069264,0.0002776728030248234,9.310414320822563e-08,0.005493520175015301,8.422080386560484e-08,0.46302354421533676,0.5812045611555228,0.5279439127145226,0.5002144387655922,Happy
45,0.6039468029146674,0.7343910803288499,0.5616179549465494,0.24700339160263113,0.47486078614645233,0.5327040836426206,0.08811608965827275,0.32707489164316106,0.37697243960005994,0.585963716789225,0.4497630028187951,0.44281707895906386,0.1426854103213033,0.17356772210079505,0.3065394076528633,0.05446401162136382,0.0880766063862229,0.178365718310245,0.6659406046924768,0.45828407326176057,0.4531396680409466,0.14703358752646986,0.19119939889821938,0.31757772389960576,0.0547352206801326,0.09554870118197642,0.18264948975692552,0.5256196252073114,0.0839179895401372,0.3186148944385472,0.00023684910494382142,0.011923210731616217,0.0002278119582924681,7.154524381027408e-08,0.00014367821656042004,5.773892972044083e-08,0.46602475136338445,0.5170314586544305,0.5666936060040233,0.5629482335847028,Happy
46,0.670353498001928,0.5037258472845747,0.5012753876804186,0.2673512277340037,0.5432746579291106,0.5844213694520904,0.10002220959540568,0.3962240634691634,0.43247925990738567,0.5874426279790858,0.46104612183120014,0.4463034402554236,0.32260036145183996,0.4638035341626788,0.8441980706637963,0.1649975479552944,0.3155849191415064,0.7648917189454895,0.6632854046232183,0.45384228747688804,0.451725690967251,0.3176210190528808,0.4550986999788066,0.8128877097067699,0.15811377614162164,0.30171345181544745,0.7181915249462214,0.5288301258791535,0.09256115139506138,0.31972371176876635,0.0003003043266740471,0.001736848574899161,0.000335195452765213,1.097678599933137e-07,3.2396460870597017e-06,1.2094880717155778e-07,0.44926797562783444,0.6081389292660065,0.5449075826406937,0.5002163018952023,Happy
47,0.642905689471419,0.5513038880441454,0.5692291601935844,0.3031065592983572,0.5615067516334197,0.5456839328121008,0.12265735752492275,0.41558833073346696,0.39058881774435705,0.5795407323375684,0.45181288170431144,0.42619790678755026,0.349824600619717,0.39243930724091225,0.47050816894892294,0.1857901622314647,0.25033510558371913,0.3202918147156345,0.679317015623211,0.4562387607289546,0.450219315614437,0.36501467729153947,0.4178561503185142,0.4902659134250661,0.1944380404829027,0.2673974636162551,0.33467831204498405,0.5295220726141691,0.09596293244890962,0.3193261405167808,0.0003552437585999569,0.003914272175909488,0.000256388470325472,1.4936505209877555e-07,1.5823004419198745e-05,7.230814562472685e-08,0.5343340495255309,0.6248166814170849,0.5322220331569731,0.5627388178165391,Happy
48,0.6917214395659907,0.5310489513890544,0.675427874309893,0.19434808510186355,0.6829950214605689,0.4655500291260192,0.06058971647564597,0.5546804881939496,0.3098917329159086,0.659328073378136,0.34134958464720877,0.514622394458103,0.08878293527618901,0.36996959712639094,0.2066591667456664,0.030437686017379433,0.23104719182337452,0.10780265836267562,0.7758561016801867,0.341264931064814,0.5895846820077295,0.1012286915082757,0.39521808262349084,0.22383219818310374,0.03427132630728029,0.24737678737538335,0.11566943027630001,0.5177460030371883,0.08989164658526304,0.3167463995128572,0.00019905369070437898,0.001925626796520497,0.048126079718446166,5.260551968679239e-08,3.955233147243992e-06,0.0023172942921223646,0.27283851155316846,0.5982179924061444,0.50344917483995,0.4996492844822141,Happy
49,0.5472430580737364,0.47082708187235195,0.23532571491792764,0.22687666306414223,0.7140523737923553,0.5931587231712568,0.0770352491769879,0.5930458484227104,0.44218728685687286,0.61535714576604,0.419916079837853,0.4481597481853128,0.07979768716320233,0.373154427175037,0.2877437073731569,0.02684014989984222,0.23374443219655802,0.16416805415054556,0.6733935867380781,0.4617532047242297,0.40650772626939763,0.0865529462916042,0.3956545621994221,0.3059747147668536,0.02836798257135553,0.24775680772454187,0.17376589088619493,0.5173221783059563,0.08995646362840906,0.3294017898875937,0.00013183933346062293,0.0029022358507633495,0.06194148025723236,2.598132298410527e-08,8.795171226669343e-06,0.0038382370046452442,0.2905709333643701,0.4336725238443318,0.5070599836322089,0.3126356526037743,Happy
50,0.7114341882648173,0.4295364142832971,0.4334528835330039,0.12470840224953902,0.5154536598997543,0.5803852136742801,0.031459929324249535,0.3674347597258202,0.4280269623387964,0.6042850319990445,0.42554527224481525,0.436270322977021,0.03745207557225528,0.2000221801023714,0.30433352697596805,0.011453329108346915,0.10465458030419578,0.17667740184742847,0.6925326024692351,0.4532328740392039,0.42993835826751003,0.04652587953273793,0.22592413568883765,0.32702704957455814,0.01387844691766472,0.11775426507904639,0.1900080177129414,0.5178505294909264,0.09565557397097423,0.3207794968413936,0.00013675576302347992,0.011747290912610833,0.005021857616903564,2.762250048282676e-08,0.00013949201520876698,2.5347186898900402e-05,0.23519828423332895,0.5839280456164989,0.48137226434612296,0.37510127599934023,Happy
51,0.6031338832813693,0.5596147575983826,0.6042042406166412,0.19557592369091878,0.6627497401190137,0.5898509553808172,0.06117764569927372,0.5302868925589033,0.4385008080586448,0.589062143533941,0.46399757583385093,0.4444339288359679,0.0851201478059563,0.2609180847499833,0.3810800077349591,0.02895711023315973,0.1459859409437049,0.23886629914571886,0.6958820411858367,0.45359234111215063,0.4407165652858088,0.09391428407601321,0.27929124266232613,0.40243378896904797,0.03128946723798506,0.154788972057518,0.2527136987435178,0.5154068063089077,0.11869907724490404,0.31424568989256874,0.00016171813532816825,0.02712565144405052,0.014616082866463,3.6701109700237496e-08,0.0007391951930924116,0.00021399921248613742,0.32891204778623195,0.6395865308089402,0.5562456309729195,0.4376218989809933,Happy
52,0.6064964666880082,0.5139051985303317,0.5423272189809148,0.17020717227274837,0.564120098958861,0.5507757540023205,0.049553432710669025,0.4183962462464396,0.3959879072986588,0.6023569671313553,0.427548902094314,0.4332752016018717,0.08769788574923126,0.3689552553571362,0.36948518416498694,0.02999706899220495,0.2301906818839868,0.22901533706923394,0.6893575718588709,0.46722245759580255,0.43531310009339175,0.09909202199841181,0.3951384838352949,0.39485909590167195,0.03339212998091134,0.24730751020738662,0.24609495229712283,0.5163512410125751,0.09340402267396429,0.3091397421121511,0.000146180158456478,0.0019418147066973084,0.047346727109366056,3.090364899742795e-08,4.01991295772292e-06,0.002242869233515598,0.30730405446052983,0.584297346825231,0.5322795424549578,0.43757876380426264,Happy
53,0.7966281590499895,0.5244667699707795,0.6668227008537506,0.1555115860516357,0.5298571309313416,0.49548383483973873,0.043322735083758356,0.3822250081073442,0.33909583226465195,0.5729282095188055,0.4526978515679786,0.4581834857947202,0.05514730522564597,0.17563904645297498,0.2269751957023519,0.01756853553104157,0.08934452322553457,0.12118081178510609,0.6721127905479037,0.4723507706799933,0.45730014707191236,0.06969523258890616,0.2026950273982137,0.24964914533063545,0.021978153549716904,0.10273468810335706,0.13302349591909582,0.5144309142947232,0.10476070933732451,0.17943895008544425,0.00013845962873518467,0.016032707344370227,0.3261297914217599,2.8202555622581288e-08,0.00025907674876785876,0.10636627657661761,0.3602010854848524,0.43395918767462227,0.43498116340025234,0.37515879453666007,Happy
54,0.4432915278047825,0.5320922681052174,0.4771747650706966,0.1886849428614121,0.633551738087575,0.5477623029933956,0.05791135638813068,0.49596170325720074,0.3927886899660952,0.6132866679282668,0.40838637030498415,0.44328645017107743,0.0591492884938325,0.3275457691984336,0.2586580666050983,0.019014183956825793,0.19627154071484823,0.14303742408809605,0.6884224074941471,0.4627915869960728,0.43785625251432325,0.0665626816786274,0.3513144163336833,0.28072632286119464,0.02083686163836965,0.21035620756550275,0.15501427130689177,0.5147213759011157,0.09212823103120563,0.3346454046509538,0.0001491900163471692,0.0022630130448304427,0.0015927471662548337,3.198896836573872e-08,5.411635028652215e-06,2.5776226266116427e-06,0.38325761434007993,0.43565160303559697,0.45771215600326015,0.37511315531373357,Happy
55,0.6621321276049517,0.5805808144263317,0.5799714715626433,0.1680293364752328,0.38620517950286515,0.47383719920902145,0.0486067758863696,0.2457190197673637,0.3178646573649365,0.6466290587686364,0.39348663933694356,0.475364395118819,0.06005410600625223,0.2729159675277433,0.2736030648334702,0.01934423584503709,0.15465040468909938,0.1537674947682558,0.6762753001420837,0.47603586047793717,0.4460470300995499,0.0650731171765476,0.29379363801866765,0.27197932306555467,0.020299230958735683,0.16546187308639462,0.14870313049537728,0.516840477637552,0.09614950922981212,0.32598493470116396,8.779958980252598e-05,0.004484853083413465,0.00048591247443130925,1.3436076524964786e-08,2.0688155885988734e-05,2.485655372965163e-07,0.20029271811643923,0.3298549180480802,0.26522398891796184,0.31263940867306805,Happy
56,0.6987758950426368,0.473245108366046,0.4814535849329179,0.18086099627488905,0.6329413770998797,0.5849653032139686,0.05430119678289327,0.49525494494318806,0.4330808336875468,0.6316485245376092,0.39773763599499623,0.48134618933499795,0.08435363790121209,0.2775552148422972,0.34542228006358394,0.02864971933486905,0.158046713009748,0.20908885337660232,0.6798522696454402,0.4627287082830709,0.44840900966891756,0.0926994566265023,0.30234430604481477,0.3691966308015661,0.030801844962916235,0.17187658044210338,0.22420219269105868,0.5143040506841275,0.09282420526659395,0.33523383885361363,0.00015038404926948402,0.001585124120130907,0.04235765303544825,3.242454185577988e-08,2.7161718242096536e-06,0.0017952109739142674,0.34823211385276953,0.500667845059687,0.5957684423779878,0.4376487876675248,Happy
57,0.538653213682282,0.6949388401431038,0.5179341654223759,0.11905298901962419,0.6461535581152581,0.4472487917438322,0.029458077770078816,0.5106524643644984,0.2925888888576082,0.5727584143176029,0.47524898416412287,0.4383535102553993,0.011647303754695493,0.29399812693197025,0.19273803902402203,0.003345135913454577,0.1702908728961172,0.09892294682799979,0.6805480374198257,0.46836275935616206,0.4483889424297273,0.018691819653138608,0.3109758292933542,0.20127095926392172,0.0051927905437954116,0.17844367846625334,0.1011833763072305,0.513136135595266,0.09088580016872246,0.32837215711316464,0.00017028001463608908,0.0006959395601917475,0.0012571765032306445,4.010200656007482e-08,5.737803810412311e-07,1.6126910570899546e-06,0.3269937768951966,0.7142120268065247,0.4503829259247262,0.43764503159823104,Happy
58,0.28795092222213375,0.6688628108561454,0.48265143608337074,0.17486365553480432,0.4348057836269311,0.5793395317047824,0.051604688583597534,0.2891642481146187,0.42687679134334755,0.5047863036025694,0.534042496708347,0.46143137008702656,0.11626067377267464,0.23840164626758453,0.30760509798557145,0.0421618740978929,0.1301885068445912,0.1791834686982572,0.7873573511207088,0.379927890298293,0.39784859975943576,0.12387790167757838,0.2638277836365482,0.33200400850271744,0.04400416401530306,0.14369539669328502,0.1939284547778161,0.5163690578432893,0.09087976399452445,0.31778345383409234,0.00011772181758487488,0.0008356766031630378,0.0001202671964546095,2.1537380170301958e-08,8.057491564800349e-07,1.7547939757323168e-08,0.29773865020721435,0.45076564474628883,0.37060997320070577,0.3124137166046314,Happy
59,0.6368612653037863,0.600159538279941,0.5327413885664782,0.27167442503701306,0.5682734311120362,0.5695706859383205,0.1026429541452973,0.4228754568586865,0.4161978927399322,0.5153750711043794,0.47469631752778585,0.38711618009286053,0.20966793540565334,0.4319810175077234,0.38472522642791196,0.09016026607787,0.28573896872842924,0.24199677352423746,0.6908022199509724,0.4687881748908456,0.429789874610696,0.21632186634992617,0.45243047603345954,0.4019921736650884,0.09155947714582637,0.29919783933434113,0.2523258552831168,0.5174340604179074,0.09939095966900542,0.316943331447487,0.00016128392420264984,0.008143506402572984,8.944935279058435e-05,3.653254098437542e-08,6.735557372968219e-05,1.0294805969921608e-08,0.20800555889793682,0.5279298844151841,0.2777557179381323,0.2501487746256175,Happy
60,0.4342110653620683,0.5612877632160698,0.5371135438833653,0.25856431354068204,0.4444742678854574,0.683693829400237,0.09479394606870649,0.298141013438893,0.5484030554660252,0.6409716633271656,0.4081378676973843,0.36752962409048845,0.2330757241763809,0.28706978587960846,0.43647347975615175,0.10416065585003649,0.16509241843956957,0.28816601688020016,0.6884165941923478,0.4390481664369332,0.46476081226284693,0.2351798523216049,0.30758103018648825,0.45311170048332294,0.10280515932263415,0.1758498268462008,0.2988338715272176,0.5171942452240225,0.06927723088397718,0.3168163917810382,0.00012722205586735634,0.01990309069447174,7.364316977089378e-05,2.4484023774295055e-08,0.0003986419776700032,7.311670667629235e-09,0.22180177394313183,0.38351445295494363,0.2731441189450339,0.18762876275047655,Happy
61,0.7718519420661192,0.42447200159611514,0.5463103540265665,0.28518735068243045,0.742143358155809,0.7564526992770781,0.11104045323320402,0.6287315289422335,0.6411965902241823,0.6137622773157683,0.44169538780091855,0.5931263674639985,0.2925269563671452,0.7212280283940272,0.6417875207740141,0.14327159325984426,0.6013977819094528,0.5031685197123624,0.6376757658433444,0.46940566449408905,0.4767273282236572,0.31323709699150026,0.76050712580302,0.6628356901499978,0.15492082643723515,0.6478506819378129,0.5236972624669624,0.51419884337005,0.08995009660695431,0.31742376535436007,0.00017433192183534824,0.0006797100387153273,0.00011398609404886561,4.1762586689874966e-08,5.493696988165313e-07,1.5915537029141146e-08,0.19698536317823875,0.5824722738986807,0.31665105048921144,0.18833020869108527,Happy
62,0.48851393115307634,0.6102281766230112,0.4277758982677245,0.20323218717518282,0.5805565546258762,0.7936477513681383,0.0649018211055717,0.43624198699722,0.691192115630297,0.6268514745256818,0.43742276938814745,0.6107445921853293,0.16966392895920993,0.3522070249502759,0.5661274976803785,0.06806302298856828,0.21622578467362832,0.41802337037079634,0.702540243151664,0.4359799100329344,0.4462344354870277,0.18144929923468248,0.37439242334117767,0.5783247690948384,0.07214269250387739,0.22951883894111064,0.42649759999227493,0.5139432949298659,0.09147039160400516,0.3186842462276063,0.00012138319294407341,0.0007826428595024954,0.00017770708965866158,2.2651634631177376e-08,7.131135274155831e-07,3.6136091158280394e-08,0.11988181596021753,0.43858856300613186,0.3625663240053708,0.18774318871860415,Happy
63,0.6641938366714583,0.68988696047086,0.8220365001129805,0.1778218266413816,0.5818149533170354,0.8212333594062108,0.05292705333188626,0.4376214790427572,0.729389120824359,0.5038611895276208,0.5517844476530681,0.46490827171410326,0.15036088662794922,0.4840093460726806,0.7882916640658327,0.05822612194997081,0.3351622612930217,0.6876643970320035,0.7101853810738817,0.45893778062239426,0.41767002983643564,0.16579780025478372,0.5162963882074048,0.8063735447131473,0.0640100237749449,0.36182837111619814,0.7091658652152659,0.5148082447632817,0.09523770769166033,0.3193322341414651,0.00012392944107652635,0.004626417226577547,0.000277408114634194,2.3442331166700546e-08,2.199602695284872e-05,8.40670965331282e-08,0.10101605812696494,0.49808084261487184,0.3926154056200327,0.2501362842047121,Happy
64,0.5292721801210404,0.5485325966965475,0.4067879547324867,0.18447753208220916,0.6588254414570004,0.8564867327792635,0.05595695579995869,0.5256147054859285,0.7795893518500445,0.4306666669346581,0.6449273008189781,0.6172702627043337,0.09347376955226532,0.48408280573573015,0.6191332926540601,0.03236208040593146,0.3352343239728205,0.47695020064022353,0.6744727633479098,0.440579689446141,0.42515329249326206,0.10050961988859371,0.4981653123137064,0.6376130229274484,0.033974692677403516,0.3435351130573896,0.4937565623111074,0.5139441412557236,0.08950428901292672,0.32212018277528687,0.0001391301585835639,0.0022788773020636774,0.0004592255547592858,2.8432419299702284e-08,5.485719917269162e-06,2.2265900647992503e-07,0.1156568165224926,0.5000188215160597,0.3936495914644516,0.18759313971233338,Happy
65,0.6994885019364814,0.5091237894970858,0.6257132421611955,0.17703330840802575,0.7464028282699509,0.7950746399059975,0.05257310759684123,0.6342242556063474,0.6931445365241268,0.5048477997858896,0.5972903893528936,0.4943214137316544,0.1360783425773675,0.5308057585026004,0.6258825730920976,0.05129363467978122,0.3823718753579485,0.4846965896884727,0.7031975912744005,0.4245760632814141,0.3834206874806104,0.13769651093201268,0.5415501001174688,0.6384701930249916,0.0503131767042111,0.387985654217222,0.49476106764609407,0.5141300768018355,0.09091700656568817,0.31837924791181355,0.00017529471719408425,0.0005892771072137789,0.00016779146662077255,4.2161993840673065e-08,4.229948700451154e-07,3.245607096530485e-08,0.10004077639932245,0.5903873141210497,0.2908644815260795,0.1875881465249786,Happy
66,0.5641133612158252,0.6509748417733177,0.5797117024018379,0.14415873306133997,0.696281688120598,0.807055735169828,0.038761930939656936,0.5709536680757326,0.7096388456575204,0.6759683598971304,0.3700145704994169,0.384288572124355,0.06219817490163348,0.4041999388458862,0.5505364215368971,0.02013104614103389,0.2606703182015094,0.4013355548422199,0.6909597393313536,0.4356552992476488,0.4425370451571229,0.0683739879564453,0.4196226851319584,0.5771038599874637,0.021495019178978492,0.2689864191538863,0.4251585462621917,0.5139820544102375,0.09121329698813622,0.3206048764729952,0.00019052199487005773,0.00043608819251826294,0.00044237891226581833,4.872541014614739e-08,2.4623752459257025e-07,2.0703837533885152e-07,0.10154622212790829,0.6221703562539773,0.42275277947309076,0.2502563144667066,Happy
67,0.5450930879444993,0.6855046367659767,0.4847877709065378,0.22083745389683054,0.6177532155687347,0.6402464574515082,0.07384533403674372,0.4778102467095737,0.49615072466144944,0.5816247089033785,0.4100790546862979,0.3435380286530376,0.18847081397543425,0.5812341342172921,0.7621473209363004,0.0781639835541727,0.43616763329092106,0.6528428919114051,0.6997263138965208,0.4587835179804895,0.49670943284141783,0.19420288487760326,0.6066936060549324,0.8008114353824267,0.07903618617405384,0.45910236689396067,0.701501138983126,0.5146111337642151,0.09165965952224123,0.31834561880006246,0.00017431958950241187,0.0008075512466138423,0.00016522215366652284,4.175748275529498e-08,7.559212863315282e-07,3.153458966079148e-08,0.1890764579567869,0.666393703481742,0.3203640595764956,0.2501700441132452,Happy
68,0.5782354122641264,0.5700321091766035,0.5758909961926062,0.14219985835550566,0.49732134103163067,0.7055172245514183,0.037997264172391756,0.3491651610961915,0.5755402645002321,0.5761707159619811,0.4524134978054409,0.3413274298895587,0.14984144819185546,0.4463744515715515,0.5683855122870227,0.05796884007253793,0.2990888804288306,0.4204645243926095,0.7476192066125883,0.42317933534894075,0.45910659288325123,0.15311646577677726,0.46421237055533743,0.5833658206664631,0.05768510473338026,0.3103722731928306,0.4320461158642875,0.5155862295405127,0.09174327193567099,0.31887475549635963,0.00014390703037066597,0.0010180326815918427,0.00021842123704675194,3.009599385535314e-08,1.167195226411081e-06,5.3307771526297675e-08,0.119721199305369,0.5381200878081334,0.39981905074462687,0.2501118846593396,Happy
69,0.7332998873951856,0.46200189738584324,0.5625258227139094,0.07707008279916625,0.4099189271524042,0.7360389350021196,0.016305880165561625,0.2665675452740327,0.6144932580512413,0.5820465631591771,0.48397774078705025,0.402150476571549,0.03190851149303768,0.3436227403656096,0.5970808119009602,0.009630465155816519,0.2091977006579578,0.4520227568976069,0.6445473938423609,0.46027136782705813,0.46716821554623217,0.03955089069575114,0.3629488450131314,0.6172898586362826,0.01159481813503878,0.2199344080992002,0.47020813094657976,0.5161726777537632,0.08922590674418959,0.3203384000514138,0.00011722655086117335,0.001670683667938738,0.0003374700917560712,2.138871577046797e-08,3.0057059907607027e-06,1.225371696768145e-07,0.10074338307137147,0.45427737693010634,0.4225468889780541,0.2501125255759254,Happy
70,0.5813893194665227,0.6038486919221941,0.6197699601974286,0.25151322036235985,0.5127490646160243,0.6713393222398756,0.0906939062521598,0.36468495953516816,0.533304490917953,0.5760052120562217,0.47703521042346614,0.3268342010219682,0.19078471801547667,0.34763332520283396,0.45018160544776065,0.07944200065313037,0.2124702947903158,0.3009372907550061,0.6874142471457875,0.4461020508142809,0.4473182514212638,0.19734039546233895,0.367882909843432,0.4681599002008869,0.08076874819759468,0.2240470083744914,0.31314448029725567,0.5158629877234018,0.1145200317179441,0.3182149297228684,0.0001299539578231086,0.022015961153399103,0.0001625024560833816,2.5364779604007473e-08,0.00048747186683002617,3.0573557212526404e-08,0.18435337287865217,0.517222819207761,0.39694688237863995,0.2501787933698938,Happy
71,0.8004068075169075,0.3905040598302435,0.19693161061921005,0.25263205414177703,0.6840340786771426,0.7723372227141074,0.09133881103614352,0.5559455577702709,0.662335913959166,0.7179589921768341,0.28540806133557883,0.30726951708113226,0.09454307812735814,0.2811690974605169,0.4256149654153095,0.03280520172641796,0.1607101466834655,0.2782104486863852,0.6897078886791562,0.4473359355850568,0.4531034038079761,0.10223242081140226,0.30417250871844503,0.4500646948059582,0.03468666041331759,0.17325983366762432,0.295970542572053,0.5153797237775868,0.09186378053847441,0.3212147843907799,0.0001645099771007308,0.0008167224507928384,0.000454760811983274,3.779395987862853e-08,7.719955039402878e-07,2.1846390397010068e-07,0.2314904826795878,0.6299159917198298,0.4307361799879555,0.25024693919850904,Happy
72,0.4453395437592441,0.3121049178286152,0.34924176697478354,0.20544417001015702,0.6747397046072984,0.7037651566088301,0.06599642559684406,0.5446749737779686,0.57333958252982,0.598058638268197,0.3636849533090967,0.3285501497937147,0.18602973758896515,0.5692630004363436,0.4464778820991191,0.07682409766915477,0.4231227369283228,0.2974643483449748,0.6774042601753344,0.46522436721760224,0.4441361425302873,0.19672515378317323,0.5948848682492534,0.4653508717543298,0.08042786407514173,0.4458212901830928,0.31045173239014995,0.5147056656685342,0.09102351771185183,0.320689710298655,0.00019234665912606133,0.0020782924646425833,0.0004485338112292963,4.954300755612702e-08,4.586051188269703e-06,2.1267954773279067e-07,0.30212932919441754,0.6759887062570346,0.4275129719652735,0.3127931988435957,Happy
73,0.6848186297503919,0.5053936907272207,0.3197552402095489,0.11246361795081618,0.28169661252780875,0.611326431881961,0.02719455918326744,0.1617793331756348,0.46267912761816254,0.6067386358684266,0.4428006588163385,0.4955543591784951,0.01608475815229558,0.042251946038452955,0.41160997532381915,0.004671060090301459,0.018133865296536343,0.2655800114781825,0.6828623998534802,0.46211890984301085,0.3806010711151619,0.022251338044407314,0.058777354691080703,0.4299683984943772,0.006239953264623618,0.02455872937628012,0.27737523383263557,0.5151920318614768,0.0929262713565614,0.31885728271989977,9.996563401199436e-05,0.0021783690389004066,0.00020962945703486408,1.6513967843058524e-08,5.0248602122382e-06,4.931908554089641e-08,0.10750166373675321,0.4133993756070118,0.4172714413018118,0.3752294295064343,Happy
74,0.6765801320189373,0.5219060079697281,0.47241667779182284,0.6544882254734063,0.3175631429757027,0.4042303824911302,0.46131010175525394,0.18912772793647117,0.2535675386031384,0.6193393209950702,0.415965589411024,0.41136918770768405,0.7306497454739199,0.3307788774522975,0.3686712942441875,0.5887175948174093,0.19884626590794527,0.22832994571664852,0.6349039244022555,0.494335092143611,0.4795644034826671,0.7406832449856179,0.3558189544486836,0.3886876541529832,0.5993290728275283,0.2140447641869429,0.2407551792444405,0.5217343911387577,0.09371119786184633,0.32034692697066086,0.00012082287700477069,0.0005655768593719911,0.0002848141666680418,2.2479378043145318e-08,3.9257977137030634e-07,8.842075680176545e-08,0.4742278751392162,0.3963333359021282,0.30552038498147366,0.4384308698576542,Happy
75,0.7684210813834013,0.3613608928327294,0.6320289547651602,0.6121861432724831,0.23189573494706334,0.3476775804624987,0.40937114347883197,0.12633432908785303,0.20579213494093368,0.7016383872467186,0.3748179340473172,0.4322193249659329,0.6973601232712907,0.24192863418161992,0.3858988548173558,0.5451521451143679,0.13262310873913044,0.2430080829682085,0.6460458051323339,0.4868888799404526,0.43473388990728745,0.6973892198178444,0.2603187973460636,0.3972210237495276,0.5420771678567888,0.1412192075267669,0.24815113311067183,0.5215346995784168,0.09294101980685163,0.3190391511062,9.420175845072089e-05,0.0006103936231732259,0.00015902575553870612,1.501886427148837e-08,4.510404555747788e-07,2.9366572635376748e-08,0.4246456814845733,0.3265664163101681,0.2094527066431748,0.3751756670384082,Happy
76,0.6267839662974339,0.6296436490253647,0.5960311363530465,0.6377559527109972,0.3883318061254318,0.35847414381116216,0.44040054446272636,0.2475614891123998,0.21460394038363192,0.5857702346145363,0.4300899312778594,0.42945539162250107,0.5284686391441913,0.20356734029795892,0.27976933731141385,0.34875379177377897,0.10693957994757072,0.1582731901174223,0.6838062619604056,0.46027176135050507,0.4387775239355008,0.518046552490091,0.20539760521730185,0.27993693974202427,0.33429991022791994,0.10444781989764841,0.15444080425697848,0.5205991146487395,0.09053884641485757,0.3199492414038587,0.0001682951007677105,0.0019212692772735533,0.00018946186403535686,3.930051746473358e-08,3.9379119213618935e-06,4.075340618219221e-08,0.5495584034323411,0.4437651196806801,0.26584010497311483,0.43896099730436444,Happy
77,0.660115199239546,0.47536239817910275,0.5836111067263767,0.5512243046180061,0.38775470107603427,0.38829266430601406,0.33989927403792447,0.24706096617979847,0.23969850778155272,0.5641438627796665,0.43580647212675244,0.4203219107524773,0.43166348674651184,0.19023319259271368,0.2774253953783342,0.2547320399160871,0.0984229748228,0.15655506958759882,0.6919859246350646,0.46221397574396045,0.428979214184155,0.3971137625444912,0.1781812425277293,0.268038125941195,0.22091784525756997,0.08760836054238683,0.14589060894020603,0.520182877057731,0.08990954640972305,0.31942114081997713,9.953163194767818e-05,0.0009012330821097915,0.0001366759171836266,1.639907812714065e-08,9.280319799831017e-07,2.2184721960655972e-08,0.3013468583960921,0.32792231338971267,0.1737725788762167,0.3125556423658026,Happy
78,0.6511862750376064,0.585540019079981,0.6685796547963427,0.5377417175170632,0.309652032587659,0.2940071738010869,0.32539200127092505,0.18296440210159032,0.16415265356183528,0.5295924676576694,0.4386521418028235,0.37745397831054706,0.7126348988374438,0.3074270607510456,0.18932355607747883,0.5649434785343701,0.18052976667746162,0.09678068007896369,0.7048923333647444,0.4565575457398467,0.43094957369061715,0.6956978570426475,0.3106344283989056,0.18688163793444434,0.5398965097560234,0.1781821807701795,0.09227534828133123,0.5216165747418344,0.09064431809427977,0.3177606566970846,9.700614392941675e-05,0.0015953923948494855,7.615188151726945e-05,1.5738000596126676e-08,2.7501467326388698e-06,7.751786625459233e-09,0.3384882977274641,0.29073916985365017,0.15805129417961716,0.3125206304341715,Happy
79,0.6045605301437578,0.4847790138440631,0.5240321100967456,0.4547327525917265,0.17808671270562332,0.23041258486746827,0.24291668489995602,0.09134065505001812,0.11947900965743115,0.5684980334075596,0.43270085415728693,0.41697827116320624,0.4521010536139322,0.08313902786763065,0.14325329381215446,0.2734563518772267,0.03770793556540498,0.06925054615390391,0.7143751788509529,0.45312667469986423,0.4479712526171654,0.42588917471611565,0.07765474236916967,0.1383005464464062,0.24594496776883587,0.03335291334302242,0.06410474616338681,0.520757514862213,0.09744407574153684,0.31812704246608525,6.426270299088759e-05,0.00736032432690942,5.818152045506106e-05,8.321753216377027e-09,5.5114081309386485e-05,4.876999821550293e-09,0.3082118289287037,0.22836321511025687,0.09918700436367195,0.37509814594159546,Happy
80,0.5999488859809915,0.586881761350237,0.46998475502860104,0.49852699941102196,0.22145809020663923,0.2245240156632901,0.2849622880185062,0.11927811941452669,0.11559840324293694,0.5920885713429528,0.42529024015637656,0.4227554083833671,0.571477492212756,0.2085706707717823,0.20914650384607292,0.39486276127811154,0.11018992090411378,0.10941383677880036,0.6913227038153485,0.45142314893542496,0.43983269490780647,0.5423267395968049,0.19658786515892301,0.1928487502370469,0.3596589010159535,0.09889670933712512,0.09593813242918894,0.5204560306500635,0.08994369042047466,0.31860602020639245,0.00010211211203986092,0.0012916097586936454,8.592392839570761e-05,1.708772549894592e-08,1.8341662978721712e-06,9.586151179715759e-09,0.42635027901225253,0.2758980842353559,0.09873541540520346,0.437535628627532,Happy
81,0.5856876004247001,0.6212836986331454,0.537663674093354,0.4655587884264304,0.23720875460083954,0.2537456936460172,0.25300555162728017,0.12997570894079286,0.13528224064964509,0.5418267276682781,0.4413120168421899,0.41614208596047075,0.28261533918041576,0.022266299342455005,0.08636203683890427,0.13639695776799313,0.009291119737677125,0.03878605073764114,0.6704594633045022,0.4822688259969539,0.45042894166675074,0.2397049907802164,0.0,0.07752757412277175,0.10558153074403819,0.0,0.03300203382901424,0.5212704041409353,0.0960966651325769,0.31836471892418206,7.448077173784297e-05,0.00019858962142401461,6.580307958302294e-05,1.04059506904276e-08,6.497509345077643e-08,6.017377553488872e-09,0.26941188510667724,0.20512493349778924,0.08451982565421758,0.3126469059066187,Happy
82,0.7969155886522707,0.5036196738809312,0.6064666219291579,0.365437134154933,0.20944733979299837,0.29565734491068596,0.16733890923682965,0.11131822506379391,0.16537921398492858,0.6657802744926391,0.40740534316189414,0.46523741099064564,0.27989318494435145,0.06632278931863188,0.12888121081211112,0.134533691423224,0.02941616775839271,0.06118602668895907,0.7062465656312119,0.437848136201057,0.44100098145450956,0.27763420942140044,0.05580820766396144,0.134233382039643,0.1300378378896611,0.023215649428493575,0.06187964306751579,0.5207035448352137,0.10190432753696706,0.3377462974303159,5.942214049131775e-05,0.01432968422343155,0.003597845673007479,7.407302650602418e-09,0.0002071565039877745,1.303642410081939e-05,0.4654184755881871,0.2853028805626141,0.20319611573228388,0.5001212822850924,Happy
83,0.5860911317548861,0.6209091854978971,0.633296709778713,0.5013529810186723,0.35930621970362386,0.3803240395933448,0.28778797988202254,0.2228769762668692,0.23288337413152693,0.6496624817188378,0.41623618299239074,0.4544424545600567,0.3606605965608627,0.20081184521561876,0.290854201995777,0.1943636312088595,0.10516225467920688,0.16648820338057313,0.6709371367641532,0.4778680347550705,0.4343820547881383,0.354007632098475,0.2090844552367614,0.31255593193796394,0.18570707842481493,0.10679944068689051,0.1787840846382883,0.5219784531274857,0.09044743514895807,0.32503576618312036,0.00012371818134254716,0.0013583284851652008,0.0008671979613110064,2.3376234586428794e-08,2.0195253351298345e-06,7.742513004697723e-07,0.4903405258774857,0.40422771728225354,0.2665938940337361,0.43772756078743547,Happy
84,0.7269745079678969,0.43197268979985753,0.4990454835336477,0.39859761541365735,0.13620962162862668,0.27607556395930727,0.193814995127762,0.06648143411602506,0.1510438855709829,0.6324000648405331,0.41951429369532395,0.44114311936624734,0.24044451419333568,0.006774880041982082,0.04255520545751283,0.10873154696378386,0.0027644212817167038,0.017987917343540848,0.7040543379659777,0.46762086816591236,0.4319435193697534,0.23259405435042194,0.011975451637716777,0.03412457382002924,0.10123219071955475,0.004656990167306935,0.013604072663983908,0.5211425563339736,0.09110441790654923,0.3234788343529617,8.528995257585031e-05,0.0006421007969185189,0.0005131721975436085,1.2837990854174944e-08,4.948265396735063e-07,2.764986542556802e-07,0.3837653274668441,0.319224440856864,0.2382954704253577,0.5001556682051745,Happy
85,0.6683460189828636,0.5549979744687569,0.5493845347771741,0.46982719020218433,0.22260416345761364,0.33543497919782767,0.2570383479615454,0.12004659372566395,0.19597657733153784,0.6026635470813623,0.4386844596429761,0.4496516788425666,0.5931599212400802,0.36941340503012293,0.3407643542091335,0.41911967683547685,0.23057739148294967,0.20531229047820962,0.6979698005375746,0.47938470229760355,0.47644694683912836,0.6056473185411668,0.39491868282824494,0.34902647711605594,0.4298751424058105,0.24711625162650172,0.20757049820183354,0.5199744809777951,0.09298869824668408,0.3268169996206364,7.889861982912104e-05,0.0025507460151526977,0.0008152112282015978,1.1371721983518267e-08,6.833541899605998e-06,6.854574466376852e-07,0.34352262660548544,0.29166141637680254,0.23062798071313112,0.43765191772526957,Happy
86,0.5749013462773831,0.5780433562221039,0.5488767788472604,0.5419141671496597,0.31123852111511385,0.34369192786010355,0.3298483749800054,0.1841944446092869,0.20257603284674408,0.5612304064301599,0.47093657952211004,0.4899944911741166,0.4613736806325865,0.2418034818171865,0.38365900669391667,0.2821503503050692,0.1325364650800673,0.2410794575355306,0.6847449456608491,0.4715251732642388,0.4585472764129624,0.44890901636644204,0.2497434083475646,0.3987519182864726,0.2668437224884982,0.13384859282060013,0.24948756658690502,0.5204966922573814,0.09234360104324861,0.3238843452876425,8.887165972601966e-05,0.0010875606050603271,0.0004450051892963785,1.3695407088932954e-08,1.3225165132031205e-06,2.0943617987330615e-07,0.3336480576503626,0.2880537393392027,0.1610766803745309,0.3126919191179962,Happy
87,0.6671309736254458,0.45707579997995185,0.49218516225845393,0.6097441756335333,0.3824856532645838,0.3189854766189704,0.406466209096371,0.24250937907330594,0.18308338510330063,0.591125889088682,0.43987678697671273,0.4623843311487522,0.453284836949205,0.1594971414450602,0.15073972363134094,0.2745593592235709,0.07959896840776771,0.07355003118867562,0.6873042664740688,0.458103728431001,0.4393755169379052,0.4382589020076701,0.15777001499822213,0.14306431915109996,0.2570779748763684,0.07558070768439383,0.06673714769389948,0.5203298577559327,0.09161709135396434,0.3229964244869083,0.00014060402458056928,0.001311994030794589,0.0003349493816426441,2.894083419690579e-08,1.8898538373092217e-06,1.207775979013791e-07,0.42700972939127146,0.4022976104077896,0.17031436695176455,0.31255000826186197,Happy
88,0.6266567087031765,0.5542023002056108,0.5568904476234884,0.22221966969925733,0.5160231012427793,0.2605663171171291,0.07456992264933732,0.36801482367943583,0.14003043209195593,0.7274263984135523,0.5182149867479522,0.47682476503719334,0.09197166399193106,0.23877016370276238,0.12527884891907384,0.03174239372726161,0.13044219258198012,0.05920369742375686,0.7029020502904386,0.4895200053470153,0.4520641265629844,0.094146990587912,0.25251855557435615,0.134072142790064,0.03138312172274123,0.13576936803659412,0.061791855230792524,0.5129258019518943,0.07528081342740708,0.40978570127042613,0.00018602726328828157,0.01903443685978533,0.2517024246705211,4.673980839652443e-08,0.0003647113702653761,0.06335894055809259,0.5393971517002144,0.6414706641525393,0.3773188659533596,0.6246899193390081,Sad
89,0.6940698275029881,0.7963772965539089,0.5264163864526361,0.28129670897009534,0.6523697561381581,0.22823580008262773,0.10859066415035301,0.5179684158124392,0.1180394392332764,0.5430943859054784,0.5025000642598094,0.3938605441857879,0.19884644179416783,0.392115153131254,0.11654848715668205,0.08395498245150272,0.2500525745133909,0.05446442222103478,0.7898100441225192,0.32620544384401545,0.48323166952147983,0.19214221430149223,0.4038932659811369,0.1264823310340054,0.07790614830009548,0.2549740316453134,0.0576961553016099,0.5116961845444647,0.09040186108900017,0.3080631065219899,0.0001298509712898978,0.004918669224023061,0.017577882000468493,2.533130637335925e-08,2.4822827799146976e-05,0.0003094247764448522,0.49237088489566344,0.4710964771432579,0.2836050920170771,0.5002538178730291,Sad
90,0.5927137634306875,0.5030825705701856,0.46448691043920914,0.2387605454114043,0.4776561610458232,0.19591372334106688,0.08349428061255948,0.3297916034670434,0.09736151390903966,0.5516469412479836,0.4926068897331355,0.3767456137342043,0.11772560711630244,0.19551425302625933,0.12384415026890612,0.0428175092536948,0.10177067467977724,0.05841856027505648,0.6793505483067764,0.47616839524083054,0.458547096819577,0.10775845169953988,0.2019782144373949,0.1346500817424229,0.03699983760431527,0.10228182498484577,0.06210666806961527,0.5101601315061487,0.10455686056105234,0.3290369097518479,0.00015979947581575078,0.016398361948416665,0.09300840441805225,3.595909888321902e-08,0.00027098082333568873,0.008652726550943726,0.46851844946602467,0.6132505519144467,0.2568218354252473,0.5625862796691093,Sad
91,0.6080430758732545,0.7114261448855006,0.5064264830670623,0.2904387260827951,0.7453965718447851,0.3767115236399656,0.11438805631041271,0.6329247148313668,0.2298199580468732,0.5212373058111694,0.4757157938320698,0.34320397535340563,0.2530613643454064,0.6901926912811366,0.42136922598399573,0.11673968574833674,0.562752397135034,0.2743564334746144,0.687599813357936,0.45444165914195855,0.4512874922729312,0.26130130728176826,0.7045215823573819,0.4276169894631202,0.11924698730431411,0.5757618038856575,0.2752323134157224,0.5119483667533832,0.090404138331363,0.34445989180403663,0.00016745767103254136,0.0023435775522535236,0.0565072083978402,3.8964734766602245e-08,5.7930770948986916e-06,0.0031944317800192026,0.5042380472628296,0.6379382471402618,0.4231739579362825,0.500183167998218,Sad
92,0.6237829525412721,0.46184432777803325,0.6325734394692499,0.23093779595250646,0.6784179059152742,0.23677691831209283,0.07921538383908112,0.5491230076749254,0.12372193338284367,0.532028925548875,0.48780539303353215,0.37373082984262235,0.15100063749046377,0.4486256918910482,0.1950862515705752,0.05854353033781299,0.3011992388113509,0.10040438855419787,0.7041899332610497,0.4452841335154692,0.44746074807654496,0.15280629936778367,0.4603918275984469,0.19938102351915749,0.05753337221772097,0.3067298993439871,0.09999866235107391,0.5121377264248503,0.0681590455340561,0.32064115652967784,0.000167357761763001,0.027861672222984673,0.018778446151934386,3.892476796882909e-08,0.0007797564664553597,0.00035310254846768457,0.4554039575079401,0.637212940801508,0.34055410273467684,0.500165043473372,Sad
93,0.6223341695129099,0.5136620120300959,0.5100472804788804,0.2171746337676313,0.571566515772783,0.16993227656303858,0.07194098737718699,0.42644145587089366,0.08168765210953655,0.6008951820964233,0.42202361894154466,0.3859332348253832,0.18175530233184445,0.518176154642614,0.21350804567623025,0.0744985988153369,0.36937357397265486,0.11225704720394042,0.6953045925592755,0.45847749677138827,0.4367112462774353,0.18335374728607123,0.5409566021894767,0.22693416322979648,0.07315686782729273,0.3873618684291242,0.11771069271151063,0.5104896006934085,0.10248145583411744,0.32509699370601863,0.00020045634147110056,0.0020890463578526744,0.024564241702358006,5.325736138367666e-08,4.632243692057996e-06,0.0006040164182304186,0.43545824427701163,0.6858490933076862,0.26190557147786886,0.6890235313865944,Sad
94,0.5542429376158603,0.5128211826712994,0.6101967269068787,0.19870561570805323,0.5926238374828326,0.3362617166561226,0.06268789471959313,0.4495477824822434,0.19663351321041125,0.6027199284483283,0.3712614525398499,0.4144829492044041,0.1252356642718033,0.3314608622894563,0.24449423861938305,0.046227267705603946,0.19939096418618424,0.13311680788222968,0.6863973514059353,0.45121588188636885,0.4369239349873916,0.13332507842309615,0.34828068762326514,0.24548694364588974,0.048286966287751434,0.20788617349159902,0.1301695632560014,0.508702465761274,0.08641104457217591,0.32884586405683097,0.00017221717151104615,0.00740284649521159,0.01844823029233777,4.0891809012265654e-08,5.5747231745554347e-05,0.00034080155674025677,0.2978279017635026,0.6468256573134715,0.42570202026791343,0.5627513082374445,Sad
95,0.5532071003746964,0.444973903395368,0.6243229170803626,0.0,0.30714036397521727,0.4814340891713422,0.0,0.1810231455289691,0.32524896797408764,0.5901103653582717,0.4054003700721605,0.4592899384720624,0.0,0.21563225607539854,0.2215945416716134,0.0,0.1148281547025063,0.11758918292164428,0.6770338346784032,0.44752908548959064,0.4387126344417709,0.00575160956210814,0.23736808966239295,0.24193098727201973,0.0015430853875648106,0.12539917662953873,0.127748407187371,0.5137536018613242,0.09152694394291697,0.32610757866141477,8.465096169924544e-05,0.0005050288747565625,0.0010584476089152647,1.2687721181208688e-08,3.1997748951986735e-07,1.1474252674904906e-06,0.07449546729722485,0.38698589409103484,0.4623713841971544,0.49966804992364594,Sad
96,0.5830874198306705,0.6135008443022609,0.6277603534488316,0.07822888209253699,0.41541935839397215,0.47422982310141093,0.016628490359527896,0.27149861686449567,0.31824452513118007,0.6001855021855952,0.454229429448084,0.4526927881798884,0.035951302521270836,0.26855083448446904,0.33521267261473575,0.010955461275797041,0.1514781963137547,0.20084526267329042,0.6654860004371113,0.4710940079523205,0.4462881682243133,0.043866798134611286,0.2872733717262205,0.356315656660522,0.012999411055067344,0.16063115290495383,0.21352247796395002,0.5135689022794485,0.09204671639020975,0.3179848872654657,0.00010064222240193422,0.0029363586634169945,0.00016412694178891084,1.6693826760053312e-08,8.998763698789333e-06,3.114580643689131e-08,0.1784617920819743,0.3270764131387571,0.41292847060285576,0.4376531548433306,Sad
97,0.5730841452525434,0.5930608199461619,0.5827665488461875,0.023067097129768687,0.3311723201868973,0.42541033408176765,0.0038162017057675355,0.19990382798509046,0.27249018841201866,0.5987171321419544,0.4631738122720286,0.4347322892636661,0.015278913949628563,0.21443965241152227,0.34985874666301403,0.0044281609246622725,0.11404064983517138,0.21271018881142528,0.6833141990520202,0.4785506757579706,0.4423120597406783,0.01611076593142771,0.22720733199860724,0.37770488750582,0.004445143151704241,0.11860341495689636,0.23136975518345618,0.5144235121045023,0.08987759517432282,0.31787694338048345,0.00012111362040391523,0.001988418257031903,0.00016417223072543697,2.256868221908929e-08,4.2090462948503926e-06,3.1161835758007986e-08,0.12206482109428388,0.4930598303157903,0.43801647597868626,0.5002100566847496,Sad
98,0.5731847800061463,0.6117688731913542,0.5544646534604752,0.020661745643685947,0.45002967169926983,0.45829288396252976,0.003375806346508812,0.3033490858083945,0.30298034794413853,0.6176704820538049,0.535385131543855,0.4072966840465947,0.027432007187389584,0.298175793950312,0.40428691565018265,0.008190826643510746,0.17345310155455712,0.2590698655759318,0.7356400872680438,0.43246371367483644,0.4017002157272447,0.031147110959721697,0.317663059409203,0.4348097569725577,0.008938513050713012,0.1835948674507715,0.28180901152074583,0.5141819338466249,0.09332061229395626,0.3178196697144439,0.00015058879614785004,0.0018443729249058886,0.0001604339801323293,3.249951822738084e-08,3.638494710341654e-06,2.9852544434406653e-08,0.11720760017539307,0.5570982760902571,0.4636650855960814,0.5003031982602125,Sad
99,0.5962460877299461,0.7184725817712985,0.4413720250177061,0.11773197874613003,0.421899316144921,0.513590825091642,0.0289983514668525,0.2773538306005368,0.3573056183432196,0.5956554596867963,0.45779953628655634,0.35597650807069137,0.051650010067356464,0.33305803173380516,0.23517707338482316,0.016324112087235238,0.20066878591835052,0.12672280107608785,0.6713345451742284,0.4635064229763602,0.4479769859123027,0.05989354594637484,0.34375890479796606,0.2558988624476598,0.018455182742500922,0.20422571107950468,0.13734930591927752,0.5141663442822484,0.09538193349266137,0.31693238857633277,0.00010805552190833015,0.003930785197083022,0.00010039868631411936,1.8724488634136513e-08,1.595465723814663e-05,1.2654245064111666e-08,0.23055806476811358,0.42848094593207453,0.4738244888420151,0.43752063416043074,Sad
100,0.6458645964142479,0.5373184658355546,0.466988391717643,0.11530878580489351,0.48979460844473754,0.44474497611809977,0.028162804002170368,0.34169589982418114,0.2902542536203041,0.6005572014934759,0.42408553832796275,0.3219126882526949,0.0961014869207088,0.2534853032919793,0.2920408881519034,0.03345395945245495,0.14070431477002177,0.1673764392756419,0.6653331009880337,0.47559697391379246,0.43762258609289845,0.09891653638458985,0.26728066639167697,0.30667000414791784,0.03332021980673924,0.146146863756308,0.17429350280676031,0.5140044778935807,0.09156106336183874,0.3165051416291823,0.00012507074166107678,0.0006477941300827328,5.563476408816962e-05,2.3800952092599012e-08,5.029016654909588e-07,4.521836307570142e-09,0.1304876207372628,0.422782700568375,0.35692640570538614,0.37515815362007426,Sad
101,0.5680805975938304,0.4333764629194935,0.6029005797879138,0.09038430499121984,0.4780702652918154,0.47176491429456374,0.020150819484510786,0.33019484229375057,0.3158628953806512,0.6223383175355891,0.4306792941602894,0.3508683000469492,0.024527635773912152,0.21902068287897059,0.36448961307200245,0.007272244385438835,0.11707486574242658,0.22482107256156775,0.6537524539691705,0.4632191398425583,0.4631009140706634,0.03036017201710045,0.2424244018775936,0.3771993688693146,0.00869509654496676,0.12882855215417857,0.2309413752886277,0.5130808784689298,0.09246685850816415,0.3164004672360235,0.0001200581901858035,0.0012182470871912165,5.111081804950119e-05,2.2245305350810884e-08,1.640624369642828e-06,3.922926112421303e-09,0.15973705915036937,0.4596476201977424,0.35266190492250427,0.31251188117752293,Sad
102,0.6368402107715037,0.579355446669509,0.49964689947494917,0.0873628523034712,0.3660077567042669,0.5226073402082927,0.01925170423640494,0.22848756737875048,0.3665263185991355,0.6200630704489472,0.41374829077284303,0.36560355657347826,0.03669490259653803,0.23218986606048775,0.4688632694009436,0.011201737790256261,0.12593670704673796,0.31870704741449474,0.6543048380760084,0.46136067685790505,0.6037276396233964,0.04038008316985689,0.2520620054985048,0.4872542481813956,0.011862547411422366,0.13545271921779437,0.33170879698695105,0.5144556661081,0.09314997328367199,0.3163182197125143,8.254970699893213e-05,0.0014944574533158673,5.3407732143723095e-05,1.2199332648479711e-08,2.42533091617181e-06,4.221891772999303e-09,0.10415467952967337,0.2637353624028577,0.3651513332445135,0.31276443212241734,Sad
103,0.550680552482737,0.4982931397311439,0.42944636246916434,0.11527242257577962,0.41743834796990825,0.48448687272199714,0.02815034190585753,0.27331761442273134,0.3282366663316483,0.6147734656192656,0.37645482676064324,0.35728261909098624,0.07335427105955594,0.2652759292726702,0.33958931823051214,0.02433201545758933,0.14911318514295654,0.20436372501518027,0.6928002227791255,0.45937016103732914,0.4376489696893848,0.07744483574894377,0.28033310535493866,0.3590969896539986,0.02486365432785706,0.1555470468068886,0.21581101379912176,0.5141164843108961,0.09380696554277737,0.3165176799991019,0.00011526386618486344,0.0032027611131943984,6.652345546272182e-05,2.0804399837443836e-08,1.0668294216274496e-05,6.1311731532224486e-09,0.14725133936704776,0.33736706654999304,0.3927427544324533,0.3752181911086268,Sad
104,0.7941434472758533,0.5771556838103432,0.7423527443180141,0.04724647859251531,0.35321962739646046,0.4195481078454007,0.008792324592404198,0.2178273516942071,0.2671965657108608,0.6721346383657736,0.5264613406055826,0.3358678082844192,0.035158203296591244,0.23440411241763365,0.4207593166495868,0.010693669860996183,0.1274470248161931,0.2738045818210094,0.7165527723295637,0.4518748014307349,0.4107395844342155,0.0400518674861278,0.25577187672461615,0.44843995355265404,0.011756452275359193,0.13803323486489805,0.29444846810558956,0.5136962371212892,0.08547088595689241,0.31624397758626127,7.753114200660245e-05,0.006175771428737522,4.583478087034839e-05,1.1068611096659492e-08,3.8929566562445504e-05,3.276152818256542e-09,0.16851812179551737,0.2951089899552191,0.3639162936409594,0.31265440314016935,Sad
105,0.7104923512052459,0.6262053751046814,0.37973833370951,0.12105125194610558,0.5502867158488741,0.4983810471722208,0.030159161707945262,0.40362492860128274,0.3419819246659123,0.6162746772149246,0.39947080294915494,0.339019256826883,0.10194900396344242,0.5086435846735463,0.3665696114378471,0.035919483699928804,0.3596886305524782,0.2265637755170502,0.6583595882380588,0.45464766318092853,0.4638464998753914,0.10446057796341045,0.5216687287393641,0.38292848309207866,0.035613951340347595,0.36732686779892776,0.23581489711745024,0.5145312867707068,0.09426669683826633,0.31697484097426637,0.00012517389817744465,0.003054689149504088,8.337230498972385e-05,2.3833494430277267e-08,9.722815624733806e-06,9.088748616301403e-09,0.14608887751507027,0.4674504439094761,0.37641301740671634,0.3752588222391616,Sad
106,0.5331075638555139,0.36500806149548476,0.6000332999412051,0.14946704017470688,0.5348725909013405,0.47512462139725953,0.04086703743398963,0.38743286881685673,0.31911097262535565,0.6172820636030881,0.3389987636853957,0.3129166741965499,0.07614773801883817,0.46406569970907546,0.2694639340268241,0.025412034187981526,0.3158358142468594,0.15076875149713068,0.7225849819101539,0.30238733652666266,0.22181619327032562,0.08182554698334989,0.4800561779602605,0.27887937291853393,0.026533883696098562,0.32566992038001236,0.1536737245491355,0.5136612724471379,0.09041530425255953,0.31683988529723345,0.00011608040340483678,0.0009004234716495413,6.444060783849567e-05,2.1046557434819094e-08,9.264693965987703e-07,5.804989759562777e-09,0.22481551883605788,0.515161227102463,0.36203144043180896,0.31271131057097706,Sad
107,0.5812220373109611,0.5474950217180132,0.5778631539096417,0.07950198726484073,0.4241544838153708,0.4884254843250406,0.016985568224888926,0.2794032481789788,0.33210853378127103,0.6197079445195688,0.4286096774912328,0.35332620066355086,0.04067293880563713,0.2775090188308301,0.4060671768172147,0.012532789026414222,0.15801276729332386,0.26064655477313187,0.6405636168445444,0.45669463674169736,0.5145154514157404,0.044093050010439346,0.2910526948761675,0.424930822801169,0.013073800034267656,0.16342476202691356,0.2727927414804795,0.5129910168047286,0.08894946982485395,0.31636697387197205,8.766656491076407e-05,0.001532000604691808,5.345583280598513e-05,1.3404058491721256e-08,2.5437678244540785e-06,4.228265334872853e-09,0.135503376541304,0.26895722858841736,0.35913923300590256,0.3127025464092917,Sad
108,0.6140553493468897,0.4637605455132551,0.4326008675051835,0.08587227270454104,0.4256714256905174,0.46188588210152837,0.018813887227782652,0.2807851830878723,0.3063939246645869,0.613312164145122,0.3147813820654401,0.3568018564176654,0.059451133396323644,0.30167095121123677,0.3568156260321145,0.019124157196103518,0.1761146969748157,0.21843664284205505,0.6749927047488461,0.44288235552967564,0.45543318763492163,0.06743687260505644,0.3236523166272728,0.3842341038249084,0.02115390537727568,0.18825536670911963,0.23693125324066813,0.5131767758015681,0.08888537578391624,0.31603489704676424,0.00012314231598620844,0.004961892141504533,4.359223391892331e-05,2.319651752971234e-08,2.5255398832089717e-05,3.0181061777746385e-09,0.15538203113368904,0.41487692048576036,0.3697397335025091,0.37515253442117047,Sad
109,0.5534740043348804,0.8798155835115022,0.5002408989129531,0.0774768072379584,0.23705886542928453,0.5972699557603478,0.01641885110539446,0.12987252088031806,0.4467883019400675,0.5903964971797038,0.44392980795623826,0.38353741358393234,0.05420873300391008,0.12420029322408893,0.45743975265488523,0.01723283651227594,0.059370868670935786,0.3077911524945758,0.7317795721906863,0.4147451992842607,0.48918512221564536,0.06322393920421866,0.1452828014968098,0.4788038512221031,0.019636348140893867,0.06847650879756259,0.323436971828209,0.5191239555895807,0.09008410684215044,0.31711387655403167,7.276636077471922e-05,0.003761157253468606,0.00014026838992695396,1.004168145453342e-08,1.4628239359023055e-05,2.3271736099910686e-08,0.07562896543332835,0.30519754469226396,0.4401893443689403,0.374555498263906,Sad
110,0.6297263707266069,0.5116220178623689,0.49967687391984045,0.05215486216557509,0.200940073556599,0.6254404934006857,0.009924438119032012,0.10578364455534944,0.47888379371433987,0.5687862059338911,0.46337353692104705,0.4509331213668382,0.07739775157879222,0.13878888055470584,0.4889609243368698,0.025898963473689394,0.0675513179833234,0.33829360978433204,0.7472418049537312,0.41699982864498775,0.39534082495107215,0.08258580208622439,0.14283773665035102,0.5173893491437241,0.026826621797218033,0.06710805045602451,0.36193101974394853,0.518887057264432,0.0901933580704886,0.31687608970046177,5.4992779214978706e-05,0.000990375698880965,8.244787926199164e-05,6.611590961505661e-09,1.1080986512135884e-06,8.91175828195056e-09,0.0345260634525524,0.22099198937750408,0.35045397353721264,0.25109777832376584,Sad
111,0.5840581197950274,0.601386657201873,0.5081860208892643,0.07090624029842645,0.03534426091618948,0.46231897207484696,0.014628421739007061,0.015138115006553038,0.3068064785186009,0.6382123388744024,0.3708378793338054,0.36610587678548195,0.1370927052649682,0.19198827443314362,0.45416694006326125,0.05177628147618095,0.09953184478632743,0.3046927739697078,0.720447513291466,0.4508713385330044,0.41241549878683187,0.1439602374205103,0.20706976296571766,0.46572273692059907,0.053265513182008714,0.10551230541255872,0.3108076398434232,0.5173058681233816,0.09081396933532643,0.31591627867313005,3.833961800349626e-05,0.0007619958839392061,4.346516808046653e-05,3.971005006318977e-09,6.785699249122593e-07,3.0037859842834244e-09,0.10082329100488333,0.10923177511533633,0.2754844616400436,0.31386908912070327,Sad
112,0.6192963942009843,0.5518993515085593,0.42345081501365156,0.03160461670397026,0.0,0.4234356402142003,0.005459144392217818,0.0,0.270702226374003,0.6005518148760898,0.42724464574499516,0.3815559652664821,0.04661272644135121,0.0,0.26619135914471387,0.014562728019483301,0.0,0.14841244115021174,0.6568793799295447,0.4721979186912682,0.4754720682070088,0.055034317479805694,0.02169674538408955,0.2813005795605206,0.01676108404071478,0.008567848263049476,0.15543194193950804,0.5183223076553156,0.05632317500366004,0.31582743630956833,3.320374225299746e-05,0.03942975609374658,5.4976373764124214e-05,3.26854030925368e-09,0.001559577103303677,4.43212921941593e-09,0.07880092808818669,0.11339930709028283,0.3762664349444752,0.5001756707646674,Sad
113,0.5935552922251075,0.680651538780809,0.7217846751771311,0.2108870419235535,0.0941983527774527,0.31370996881216306,0.06872543502420056,0.043631183548044634,0.17902011961335743,0.5362672766963946,0.5124687718177106,0.5191547604653763,0.16291241869789297,0.04973207735220279,0.31745625610081096,0.06456131307819135,0.021565931752963053,0.18680753417977244,0.7214781060374995,0.4909944032618875,0.4090915581328747,0.15936391529660654,0.07000898747423394,0.28690399858666443,0.06077148956164453,0.029737960727870497,0.1595289941366694,0.5169088129888524,0.10076781122487484,0.3170730600843733,5.7691449327202616e-05,0.008759566934083652,8.761000224396056e-05,7.091722735055729e-09,7.784678759820448e-05,9.921972098218148e-09,0.2544792205102412,0.22421905176360485,0.13618959874527264,0.36015988573441005,Sad
114,0.5751398426702609,0.6880856376346425,0.630843904985817,0.3602541645432385,0.14432045204877375,0.45127048617453136,0.16337047872374935,0.07113390457676567,0.29635525938505475,0.5062561214102018,0.5506107973621435,0.5028483757240237,0.29422059506487547,0.07528573444388861,0.38327054816024536,0.14446046564880272,0.03379367426766413,0.24074559020391578,0.6914582274839483,0.45589246255510807,0.4286325274720029,0.2767589494793355,0.09029887715565277,0.3530598339461375,0.12944961266904773,0.03948980839694287,0.21085576009618803,0.51810149731027,0.06532333661727494,0.31660402322514325,2.877195368836968e-05,0.027125714551002038,8.084816110973701e-05,2.704776961546418e-09,0.0007391986244071221,8.60951443264521e-09,0.3354669405422319,0.0921019637595805,0.16989643564152587,0.2658753771384219,Sad
115,0.610240376826685,0.46767370410625625,0.6066559915260938,0.2875198073541263,0.0805995009713481,0.30306187047327476,0.11252151223714346,0.03668283970286013,0.17092488906997175,0.5589889688994767,0.41539189500334206,0.4585995294359518,0.1768862344345894,0.02686305787686015,0.1669276359917934,0.07188169908961464,0.011282817373274768,0.08307788914965708,0.683233579238294,0.46292393812014426,0.4432660143304286,0.1511606558522271,0.047728023456274284,0.1434726254202103,0.056730696829004716,0.019615838083153484,0.0669640874315582,0.5203129743332842,0.0898806127174744,0.3166445647901792,7.8042188088011e-05,0.0012773129542662798,9.643927867055029e-05,1.1181450336262315e-08,1.7956048004594875e-06,1.1773368910850572e-08,0.37322868392149305,0.24370692812750838,0.1838748159887317,0.5012803426679903,Sad
116,0.5076402202962194,0.7056204737494501,0.5859906805891114,0.34226390024753434,0.2206268321657763,0.5352476125056419,0.1499520583474388,0.11872171165473049,0.3796240958800768,0.6256565178030504,0.47744786765236535,0.43903783513406397,0.2566345382974197,0.054033081306142886,0.37895660043346663,0.119049363797759,0.0235695367736575,0.2370501257086264,0.6962978529844328,0.46673156556337814,0.4354531096245042,0.23353821032243222,0.06982562701395305,0.34849330882123547,0.10180539022019332,0.029652154879750887,0.20713773619176404,0.5193734471818927,0.09290464649053093,0.31735473752428583,5.1618164343272084e-05,0.001215016405400112,0.0001517108325450748,6.031692667729696e-09,1.6323487547517852e-06,2.6906034033363447e-08,0.32664018564264996,0.21382320848046493,0.2813197948587412,0.3125918914154947,Sad
117,0.5852568981736471,0.6212678337778733,0.6164495332200293,0.3617086427569408,0.2638879894006834,0.34796095327009446,0.1644794924826611,0.14876667068895552,0.20602155088490084,0.5942988743668717,0.40933724842947694,0.4180273725434885,0.3001368681759226,0.14245502940669946,0.2865027779633454,0.14864594285118998,0.06964697247325223,0.16324568830682706,0.6751409690475877,0.4881186789167507,0.4543155393201482,0.2736512675968139,0.14670317294336496,0.25709745104835824,0.12737018032115874,0.06927486081751667,0.13818448022896584,0.5210093749145859,0.09148761867416866,0.3172993746565486,7.089588974106891e-05,0.001153727737623006,0.00013644967280511747,9.650958356899243e-09,1.4793073889670796e-06,2.2117128642413494e-08,0.4105625107333566,0.23963966852193225,0.2025574503767014,0.3127394363755696,Sad
118,0.5953088697192607,0.5332639593199222,0.49912523691319277,0.3529422653052348,0.17517936728719447,0.39828011653818274,0.15785004315364448,0.08954764136958286,0.24835242821055084,0.6042469425344894,0.41496469340074854,0.4164784389422396,0.20181257514112078,3.6024077099442796e-05,0.22522695129307801,0.08563902494090075,1.4554575229176954e-05,0.12001001587774351,0.6894213482470849,0.46483542664402605,0.42953201046284073,0.14366773719242318,0.013752808693035863,0.15455553020473772,0.05312636112409706,0.005363284406711341,0.07320334052534638,0.5220453614115442,0.09128954987613956,0.31663905676615567,6.266612881810347e-05,0.005433348847592989,9.15635072862532e-05,8.014958894321605e-09,3.021631268293963e-05,1.073170033708509e-08,0.3684443445429359,0.21770383959843567,0.17241859944646373,0.31264003468461704,Sad
119,0.7580729308496762,0.5006244276206799,0.5733166634021619,0.2966518571791842,0.19811618191555394,0.3356372644418272,0.11840960120024421,0.1039654659385519,0.1961372366806768,0.5047649694760599,0.29324527907683007,0.540487313844211,0.27766004419475976,0.054964048272286264,0.2890420411322355,0.13301312682341412,0.02400612689183045,0.165135075716956,0.5980740754502817,0.34804619686095856,0.5536338361741998,0.26581513202676327,0.07442154215644071,0.28252657242075296,0.12218992687098046,0.0318154151413427,0.15632500997640822,0.5212717367286503,0.06504249785304077,0.3172908900016334,6.870058538709755e-05,0.027287891891103398,0.00011791147723197219,9.201305789051976e-09,0.0007480430023800289,1.6926462390737963e-08,0.36757292308688355,0.23523203843203777,0.15297553701626385,0.3144336173925325,Sad
120,0.5908791069003416,0.4495146347361752,0.4658030109591835,0.16728935321660596,0.2528809667788711,0.38633999474186514,0.04828696608620232,0.14091187092064367,0.2380211460670255,0.5462273609917316,0.3753956978461669,0.4700392435898318,0.11934621452615016,0.11235594519012955,0.32119853490134276,0.04354642309989703,0.05291582809835058,0.1897344533118504,0.6869663585269516,0.4654699290114054,0.43678778604579593,0.12186577071174985,0.13124747012789711,0.32409695091482993,0.04310894963373799,0.06072180713415958,0.1877143524299174,0.5188659649978836,0.08124979357907655,0.31706920015759416,8.76935138020277e-05,0.011019534905320778,0.00012087281571605235,1.3410542017027786e-08,0.00012283184900380986,1.7709505448760235e-08,0.22698634228766468,0.30021678827682097,0.32108294625542433,0.37509188582610586,Sad
121,0.6344735710959766,0.5128370021335662,0.3389362125073228,0.2523911191099773,0.1511978615193312,0.34256596710385767,0.09119975345564192,0.07513995952312305,0.20167107343548193,0.587382631147357,0.41337420340970327,0.4407187005816204,0.19553595261401346,0.020938610937572426,0.26705974899830853,0.08209041512120877,0.008720542845848256,0.14903643797083976,0.6938002191419135,0.46702514345387003,0.45030327042205054,0.17583914920633936,0.039126484101134285,0.23325591221128084,0.06918614647828127,0.01587250907642655,0.12190783902702405,0.5197785453012455,0.09342874778794752,0.31645094373245625,4.862595180419546e-05,0.0009273435089082546,5.0840924701537585e-05,5.536556555782369e-09,9.791290420550116e-07,3.888489620397428e-09,0.22755984027106554,0.1745667372091872,0.11425339075807772,0.5014022360595948,Sad
122,0.6782356631386868,0.562772717163603,0.6786841544333428,0.22605078692073907,0.4158370820436921,0.39325705030268127,0.07659534263275503,0.2718745662799688,0.24398444507778363,0.6017575475815159,0.45278061646873136,0.44285090315657283,0.16276607530077516,0.20576335396325632,0.2948113651450156,0.06448613924403948,0.10836251405144182,0.16945675478042233,0.6879360402666589,0.46834575045576976,0.42859413356176906,0.16928424112245777,0.22940627843315367,0.304307827071908,0.06579039836353422,0.12006329481723244,0.17250344478381724,0.5256437678055943,0.1603238120504976,0.3169290957779588,0.00027687569036917225,0.0929931032090859,9.808386546268051e-05,9.47177796169567e-08,0.008658565633768283,1.2135444412935315e-08,0.36020445581426885,0.5390232828046357,0.51946574026785,0.6246267666977476,Sad
123,0.6438647991519584,0.5773789520495299,0.5170102410794356,0.2416711303059708,0.417987445786526,0.3689480421578642,0.08511300330676645,0.2738131567843086,0.2232917718572418,0.6098229044419202,0.4637421467975597,0.4387344273884937,0.1301257591175173,0.18647157012619497,0.21403537003592135,0.048491228022231006,0.09605872991399761,0.1126023548897188,0.6655857791793651,0.4734981652408773,0.44698981688002637,0.1347266210828742,0.20901565400257277,0.22288681618156447,0.04893353448689838,0.10675540253260003,0.11504969947637024,0.5264249742076619,0.10378498174301368,0.3166802521755337,0.0003241103558189482,0.021627658810764012,7.929118227558002e-05,1.2618476633420724e-07,0.0004704771837253224,8.320260350155226e-09,0.47490779823239676,0.569342045491218,0.5473054384139329,0.6877131848793647,Sad
124,0.6275124342277295,0.5823294292130968,0.5257291886093131,0.20309599256073285,0.38681193644521766,0.3525423955367934,0.06483469810811163,0.24624415605169045,0.20974458655687728,0.6064148015863997,0.45754490309516793,0.43573747553488856,0.1488844444474982,0.1215133886107968,0.24316517138180835,0.05749584773510656,0.057891870310026364,0.13219831942630797,0.6944405841071521,0.4625074809385492,0.42359953992133514,0.15514174401347564,0.14437370723410564,0.26101098082837315,0.05867934599100573,0.06796684158848629,0.14092387623648409,0.5267519438158548,0.08853977477428256,0.31700440359800436,0.00028809549990987406,0.004263641147653242,8.792709244539428e-05,1.0178818573640292e-07,1.8724681474539687e-05,9.985763172347718e-09,0.4483054149588422,0.5557287385258252,0.5156295856840253,0.6876587963997897,Sad
125,0.644585024011106,0.4084556271194966,0.5160821447451428,0.22703927886766984,0.440656263816326,0.36988991256342607,0.077122004515347,0.29458292549587406,0.22407975592341964,0.6078988482532198,0.4123499251373789,0.46031121562427657,0.15810794586469656,0.2751027610147765,0.22525075416249346,0.06210948658301745,0.1562481199622561,0.12002593186383721,0.6599548168386724,0.4700001475354549,0.4567373312215272,0.1644019765129797,0.2946171107565047,0.2304866929073142,0.06330225225485908,0.1660757061844868,0.1200631694067713,0.5285573607941215,0.059261547476033245,0.31669786657272714,0.00032785764613283346,0.03234579000142608,6.735030815998323e-05,1.288721835728501e-07,0.0010502758352450882,6.2630678712198716e-09,0.43876311264232315,0.6604079208644513,0.48684634846212044,0.6251181559536069,Sad
126,0.6054185386619505,0.5516889266307236,0.5365268313079943,0.21466337620729742,0.4065320090382807,0.38739883503128686,0.07064859784983198,0.2635490521650611,0.2389301078544956,0.6268298187555948,0.4095022953490133,0.4717955220257527,0.21406275045249856,0.2942509283182151,0.3562574190646354,0.09272857869994916,0.17048163613708298,0.2179750092447319,0.6911515643517455,0.4593813284806436,0.436671062126442,0.22686289225855252,0.3251628951891985,0.3748512901276717,0.09778094288620148,0.18943782038709808,0.2289557691820046,0.527997882841099,0.08917423058172519,0.3167359530264215,0.00038760518386517294,0.005169339362429609,9.198496818732247e-05,1.7551430756653176e-07,2.7383505915466e-05,1.0819864732950235e-08,0.46750677539066926,0.6652060494498283,0.5779363414834615,0.7502581925013535,Sad
127,0.66850961320626,0.5552460323281346,0.46564189560825375,0.21092087071202764,0.3994269616785696,0.4046147418023046,0.06874255475945937,0.257261062594461,0.2539059335092908,0.5994896229659115,0.44867026688371564,0.46280592385377367,0.15432404313487605,0.17763833466514467,0.24144218366356415,0.060201916273908924,0.09057319511104087,0.13101077216596685,0.6694536258087054,0.47555085404605246,0.435846219081318,0.16037102544198356,0.19859614128396447,0.2478814453953396,0.06127440222996799,0.10015369677967084,0.13180878662662995,0.5257975438663549,0.10226608963967594,0.3182076030799774,0.00029904888502672985,0.016884406875668057,0.00021781461687679388,1.0893355442771058e-07,0.000287218178074137,5.3027592777067555e-08,0.44577040399432843,0.5276047417374653,0.6505148240191194,0.6877656953242929,Sad
128,0.6323268368229293,0.5218857259499712,0.5339802506461627,0.2420260688423562,0.43954776327108486,0.37959948199245586,0.08531139263009357,0.2935531241579036,0.23226763970379719,0.6131680751444324,0.441414537619428,0.46239863931227965,0.14098714403902848,0.1687287924156144,0.20919870713120645,0.0536430926196217,0.08513448833570987,0.1094477315149146,0.6806549286736332,0.4540932362988937,0.4504217890663303,0.14543735761695087,0.18874078558420465,0.21594325817686025,0.05397015195964596,0.09403302767493381,0.11053205918681752,0.5274807134846707,0.0917515136750404,0.3175067538041563,0.00034472967677591103,0.0017810735459618423,0.00012310475680588965,1.413200435414644e-07,3.400894236449692e-06,1.8311270582537193e-08,0.463282562582064,0.6884280689701672,0.5518995599439276,0.6879157443305637,Sad
129,0.6078449282302406,0.5711891894077951,0.5222643704761035,0.1921192068139463,0.39003015675418395,0.4238863632513451,0.0595290385262161,0.24903675807505285,0.27110989823060466,0.6262208261643814,0.40626179656452743,0.4923035139905842,0.15544206518171258,0.24229320253741454,0.30592750517301726,0.06076339265649943,0.13287560779191865,0.1778967979682902,0.6123667693649977,0.49360455876623943,0.4558896166545061,0.16333986294407235,0.26981263595215466,0.3224383685739363,0.0627656143074539,0.1479538765647215,0.18642076152210904,0.5266539157773488,0.09379146090560223,0.31711978952698383,0.00025990549842005675,0.008390955866956573,0.00010391831419022476,8.450200393741577e-08,7.147831794116787e-05,1.3463603189882787e-08,0.3999285543003847,0.5349294868189314,0.5334520036576406,0.6252131904687536,Sad
130,0.6375111737297945,0.526581849692156,0.5514068324396126,0.24185180830356606,0.41837882449404523,0.37935123347733773,0.08521396455882979,0.27416658108120345,0.2320568273545466,0.624623643692942,0.45977494822035375,0.46274925957770136,0.1608999689432103,0.2005105318939802,0.27342281218788944,0.06353026413394953,0.10496845315155359,0.15363647393524876,0.6973044666313643,0.49952344736768384,0.48447510259030324,0.1603836978958807,0.2196114574646003,0.2733300932683494,0.061280739884280684,0.11360653490416535,0.1496715190488906,0.5266528959225231,0.09350699208327717,0.3172017113364013,0.00030948996056431573,0.006131965442863041,0.0001222541840639055,1.1596808794373116e-07,3.838484909339574e-05,1.808076836020726e-08,0.4495669466796029,0.5690622708513735,0.5507826840704999,0.6876438019326885,Sad
131,0.5935333364654034,0.5678886755227965,0.44861048345955074,0.08586419504940265,0.3428655667922194,0.42339260820824137,0.018811524978844592,0.20933818782458796,0.2706633178977418,0.5983218642867986,0.4951419952144654,0.47051954399137996,0.12053713357538674,0.33326530777518326,0.5178857579031693,0.044084487284222346,0.20083484084935688,0.3673378536607386,0.6298650285323306,0.5009773704942229,0.4844486510626166,0.1256545475517664,0.3583415624243458,0.5327660178024606,0.04479956293259776,0.21612137495793973,0.3777878409953047,0.5376178685200778,0.09241063628213873,0.31576385016097464,0.0006289233593186303,0.0018352486066850863,4.5291987943904525e-05,4.365480729499668e-07,3.6037514333502105e-06,3.2127718289548564e-09,0.21964165359204227,0.4641357615881462,0.44765325242270576,0.43694109651646335,Sad
132,0.6861099554754704,0.6364553395773273,0.49814210403705506,0.18619125795406355,0.3572849198384777,0.3847780127421082,0.05674935450571962,0.22119517375949618,0.23668282313323613,0.5839707628734936,0.5189518295397658,0.45319540301570643,0.2792413138208484,0.4477740265419525,0.5739720277623053,0.13408908341172013,0.3004001600103563,0.4265305659853042,0.7055431195410802,0.3991938580002541,0.42486011703158216,0.2872301318099503,0.47089704126383797,0.5883499596625932,0.1365608000893376,0.3167886431532713,0.4375630987170376,0.5396175543638019,0.10232447168840456,0.3157188350716113,0.0006397113628069413,0.014339563766814558,3.259565803392658e-05,4.509369965395031e-07,0.00020744097733071547,1.8983273503091153e-09,0.36547879736617334,0.3536877865543651,0.41039943378999666,0.4377131774268463,Sad
133,0.6712886283032208,0.6084533862149677,0.5340228547705267,0.25238385990957724,0.427130971585091,0.4734953174366393,0.09119556528919935,0.2821174048515155,0.3175340402339316,0.5178184337815899,0.5309989015080036,0.39678322920655074,0.2994021815015107,0.47933105417750405,0.6214733506074948,0.14812344206271044,0.33058618561032554,0.4796297470508213,0.6540588523016544,0.46734219838420105,0.4473139740527847,0.30843029543321104,0.4986214140569109,0.643496822273684,0.15145239274122127,0.3439903082968621,0.5006701157331593,0.5433385378504274,0.09891323883368316,0.3158907506796924,0.0008655226317335293,0.004448745060677592,4.087144893893103e-05,8.055449467032388e-07,2.0360978645209743e-05,2.7185331903751596e-09,0.3980319974684063,0.4353590293039441,0.38327744579044937,0.37532319709344625,Sad
134,0.5164288850049125,0.5197997579224416,0.5847178031978396,0.1853302316341747,0.38692692393105854,0.49212628976295186,0.05635060287293558,0.2463437246593816,0.33576431200264956,0.5304618810751472,0.5272830570929667,0.41908594792230836,0.2293867154450594,0.38473778455837737,0.570629081318026,0.10190176769425802,0.24365636045213473,0.422896150905329,0.6619235938326544,0.4701994583256995,0.44911796843549395,0.2339796337609661,0.40806697042655715,0.589054702862966,0.10207382964067466,0.25866230058002443,0.43834568061022006,0.5393795739816281,0.10521000002412033,0.31605802401111155,0.0005328896282758601,0.015364266101726769,5.586037799120124e-05,3.1871713081369384e-07,0.0002380064421385828,4.55277612236109e-09,0.3252963784893557,0.3770281630876348,0.44810205356056304,0.37508251055790837,Sad
135,0.660202596544274,0.6376641865749261,0.4284349085453257,0.20305370364553227,0.3885421760415933,0.4360131854017015,0.06481386262507505,0.247744041017454,0.28217383753164327,0.5559695760740994,0.4877743183473932,0.33280485235841084,0.276231555721622,0.494694787807094,0.5551447505887803,0.13204422911927513,0.3457120802798615,0.4062375351674179,0.6178016886947583,0.4957280032735972,0.4250236918027749,0.28168592589741587,0.5230423227417076,0.5632879519574167,0.13277551678068678,0.3687384486636708,0.4101350445765003,0.5380696869625328,0.0938005886238202,0.3159042842643626,0.0005380622981080447,0.002384951732226811,4.958717437558334e-05,3.245939013475968e-07,5.994012444692242e-06,3.730430120919277e-09,0.35466557054231435,0.3732543760568768,0.43361885869213257,0.5003244677478402,Sad
136,0.6572211784165289,0.5302778626823084,0.6084731868333068,0.19865030624010918,0.42226284170947365,0.5127907148089317,0.0626610595891088,0.27768378239506036,0.35649230274292604,0.5390585779212317,0.5062389127054832,0.3653884948578455,0.21650412108521402,0.43027384747854025,0.5830520341615367,0.09416734263382344,0.28417195021428876,0.43647026490301716,0.6400181835844094,0.48669662207690245,0.40954460297298695,0.22520199831860313,0.45595718655137946,0.5928491947160297,0.09678980486798426,0.30252470915728014,0.44256990203369645,0.5410324531298069,0.13570434209699794,0.316421828758647,0.000675178650550045,0.05623652865440778,8.040415058517249e-05,4.998833280262478e-07,0.003169373458719598,8.52653241258925e-09,0.31146169944443025,0.3972593366873713,0.4639609156159687,0.3751700329344676,Sad
137,0.5850417415190565,0.5062710158047009,0.48430240807370345,0.18396438407020327,0.425079477453514,0.5818994648373312,0.05572066076814368,0.2802455934081183,0.42969494904692224,0.5997115727009323,0.47974392821495504,0.3338017845758568,0.24925045655697078,0.44507226375033465,0.7463538043239242,0.11429663251809913,0.2978709409468484,0.6322069654415055,0.6884154242899034,0.4595532467814764,0.4404613009065385,0.2580491659647685,0.4723659373821438,0.7691866406351027,0.11714523165026286,0.31820599056538695,0.6586535573710021,0.5418629019218576,0.07434993556516481,0.3163407438607909,0.0006039196106458754,0.02030911248583419,8.077220301696201e-05,4.0409321017632273e-07,0.00041501913045223997,8.595290516054151e-09,0.2834824649087806,0.3752999246049534,0.46951563420978915,0.3752056708776476,Sad
138,0.7191830963324952,0.48807223331668287,0.5634569923265932,0.24981771653300364,0.4007830785897804,0.4732293723707364,0.08972068053550254,0.2584566100190289,0.31727695890338453,0.534265190521958,0.5302513552331879,0.31654527312765696,0.25659173768523336,0.352317949071913,0.555986883112927,0.11902158876621989,0.21631717477976634,0.4071360975452939,0.7104833642103734,0.4041124833281243,0.4950210974180385,0.2578000273538268,0.37031156792101744,0.5632266923387302,0.11698486324600985,0.22608238330770655,0.41006895976471636,0.5361803791865764,0.10558659176411647,0.31601210093474125,0.00048548071759385597,0.008544360273617326,3.787838378380037e-05,2.6734762059532267e-07,7.4095666587268e-05,2.4060821856854918e-09,0.38945825358233954,0.36425422286346043,0.41300446648654054,0.37514877835187677,Sad
139,0.5141903814729235,0.6580594020461167,0.3920660972526589,0.18118277419353682,0.40695836478569125,0.5709913929756552,0.054447610729214176,0.2639282813674967,0.4177435311638237,0.5822501048127915,0.40838950431619314,0.33983310380104914,0.21153208081007002,0.3406062213706071,0.7299297362981538,0.09124626304291626,0.2067488871731756,0.6110662100209406,0.6838793985216205,0.4651525959674842,0.43529464380388083,0.22108347345504195,0.364007954051531,0.7447042663880464,0.0943495937181926,0.22081464932528372,0.6263382561879404,0.5377622211053072,0.08687446427849688,0.3161751223161167,0.0005258302930185813,0.0044732627085479594,7.753975576342746e-05,3.107832272850578e-07,2.0582850581759578e-05,8.000676238795132e-09,0.28530957724361067,0.40989881072523104,0.49465899757584586,0.43770129811245295,Sad
140,0.6972547013258295,0.40991110255237834,0.6047915468474192,0.18592776471487013,0.38955201750872687,0.3375029365989882,0.05662719312039822,0.24862107758611396,0.19762140782427848,0.6166424398639477,0.43157027980702484,0.3614006631662689,0.1807925874957081,0.3206825186102099,0.37304917559816686,0.07397847172351317,0.1908472063814467,0.23202604628062817,0.6993927491608368,0.45617195263333205,0.44517904851637957,0.1856071181247208,0.34883678783103284,0.36304124274375715,0.07436375008062328,0.20833809296169656,0.2190729389122702,0.5446925336558401,0.08913785240526843,0.31599030984467325,0.0011954644337580358,0.0023858481383255657,3.864063338789363e-05,1.5070308959027445e-06,5.998403763283381e-06,2.483954283525542e-09,0.358177399375664,0.44968943978691095,0.3655309105699168,0.43767317230786046,Sad
141,0.5751378840648453,0.470193064666351,0.37627299072661224,0.07592131129954238,0.3861441065558322,0.4831276954415688,0.015988326263580436,0.2456661864960792,0.3269050265604302,0.620120941214098,0.3380187722789407,0.373293095570548,0.11082542948200072,0.3461666074158864,0.4985634149737428,0.039756362688627145,0.2112712450876854,0.3478238669921894,0.6958930617449866,0.4614790241819609,0.4038978064756815,0.11680602843657703,0.3729272612458184,0.4989733138442214,0.0408841602437565,0.22828266722658433,0.3433273771440166,0.5369132021595545,0.08343413399961927,0.3160368928787526,0.00042502925789862124,0.007509275403457409,6.763664288597165e-05,2.0836586201431208e-07,5.7347797212708654e-05,6.309061052132382e-09,0.17799039085406698,0.3611030667594174,0.43511379546762524,0.43764440558668205,Sad
142,0.710037806541245,0.360748978813315,0.34982776570587726,0.1603969850855352,0.40594067146674534,0.4206873480857612,0.045353125358694804,0.2630234337903395,0.2682219398166864,0.5847912830146912,0.4170848292093386,0.3808263734749689,0.16870690073620656,0.35271029101876,0.5469412803096811,0.06756265536853655,0.21664054200883018,0.39752910752102666,0.6995495996406457,0.4577872646521379,0.4288568211855086,0.16633651659060458,0.3718578167685889,0.5438200483757095,0.06428395424036645,0.2273820429684937,0.3893689436759734,0.5356113927429723,0.1079763616073412,0.3159394638138924,0.000480241013088783,0.015647006821948493,4.022115295678264e-05,2.6194602982947743e-07,0.0002468098297609981,2.649124266674077e-09,0.3113948046619661,0.40489369644954537,0.3855062168756247,0.5001250383543862,Sad
143,0.5679649695287854,0.617679288147157,0.4052467380550068,0.21928786775409026,0.4486623117756907,0.47735721239694395,0.07303688712691925,0.3020638212968937,0.3212771942545414,0.5849367088004234,0.40604581723843663,0.36392597230867146,0.23254042527029778,0.46066212947325214,0.5735851536537452,0.10383165913326882,0.31258493517588465,0.4261092710892825,0.7109325684483606,0.4956970268015874,0.5051145799673264,0.23767469933619897,0.4923243424040588,0.5777792430447815,0.10433212990913043,0.3377285022183565,0.4258990552306955,0.5341184262836228,0.08294516548418662,0.3168466189493698,0.00035084536589064723,0.013014101968429207,7.743235745825482e-05,1.4597265801753714e-07,0.00017101892247978654,7.981278818887288e-09,0.276696401565229,0.4020192577034959,0.3502865765645869,0.37517380390879823,Sad
144,0.5422206913152409,0.6136479828093626,0.4375058699128464,0.2011070085121981,0.46317001985445855,0.4838603497111058,0.06385804582636469,0.31581347494262585,0.3276225497758759,0.5389573651027167,0.5061024547466001,0.40625552713694685,0.17945004627660016,0.3332430993401576,0.500287567331622,0.07325536741387866,0.20081704656950472,0.34954682483084787,0.7130323159761073,0.46100540730354456,0.4148150397319347,0.17963281367190323,0.3536364992668986,0.4908776116734507,0.07118033409673946,0.21225451860207714,0.3352828290878793,0.5362431012257571,0.07056382718687004,0.31758267957021263,0.0005104511457619847,0.027135448087983953,0.00014500596733462985,2.938438475173595e-07,0.0007397279614243668,2.4744700444927883e-08,0.2783819313327301,0.41480436205782567,0.43633243695405693,0.4376600409703692,Sad
145,0.6643915390038835,0.5787964595109167,0.47350025670268525,0.17385080118107862,0.4105620478745074,0.40623764060299794,0.05115535728796126,0.26714224408322845,0.25533679254252306,0.5397448419963639,0.5415441460756321,0.41959589967715927,0.20090946023040593,0.4161110309194609,0.41254248903915025,0.08512493158138237,0.27130580032940405,0.26641365114900606,0.6842798746496439,0.4653088800549643,0.4279819105875134,0.206406735152796,0.44304791541154237,0.41182402372670485,0.08585669196287857,0.29042185805805226,0.26101804154700314,0.5341468542431314,0.10454952675349173,0.31660354260168366,0.00033741322295868787,0.011216817556847485,8.105068138888935e-05,1.3585219614415253e-07,0.00012724350557502027,8.647494787223468e-09,0.27186971978630387,0.28715275043817434,0.3494917169437674,0.37516879581640655,Sad
146,0.5016687900659769,0.525330060115972,0.5619784393189042,0.10422661743571726,0.40042662036838284,0.3769279734153944,0.024469389594514605,0.2581421466496206,0.23000304774270625,0.589648363149385,0.5105536032257121,0.3979120306229003,0.12740607690487463,0.3480110373599975,0.4167069490973556,0.047227843474890605,0.21277949172633004,0.2701493538082592,0.7181757429641654,0.4617938427460283,0.4171154351468581,0.12749513215384276,0.36217503487053027,0.41640787351610065,0.04562848681292282,0.21929216029508578,0.2651116922401653,0.5387335102041184,0.08679221165966292,0.31624496918273565,0.0005652786039723281,0.0037396499810485166,8.291440913792112e-05,3.563963251338924e-07,1.4464171967213548e-05,9.000866366632511e-09,0.1881344151000219,0.4461907521833842,0.4073327829720932,0.50016629549647,Sad
147,0.7993272911006374,0.6393244399007653,0.6476587519155447,0.17279269315557033,0.4571107256624587,0.8164931188716904,0.05068782211844991,0.31004045184306683,0.7227576967231205,0.5454825245403495,0.5669351758853257,0.6338136187462045,0.16463463692802904,0.44128008740762054,0.6731722287307256,0.06544830486149208,0.2943356229787578,0.5405134702151184,0.649112256547999,0.4826523076549651,0.4722085258093362,0.1687451874721244,0.4720515472306874,0.6936771956785596,0.06551395770458966,0.31790240896015376,0.5613843505396008,0.5157632266360397,0.08904724440230191,0.31904031562817836,0.00011100100233154273,0.004000307894783668,0.00023926133545072,1.956182854487699e-08,1.6514919221668765e-05,6.338009682330781e-08,0.13585733931792865,0.39382448711609613,0.3716952883779187,0.2183680165095343,Sad
148,0.5871685080315727,0.5868727828811349,0.7212635247154178,0.2526406584741095,0.6981028436886076,0.7385283956468206,0.0913437789295749,0.5732004800233305,0.6177218165810116,0.5266366728008833,0.5727916321522808,0.5122969257453619,0.12530779817738785,0.7241395024757681,0.7233081883403807,0.046260412794428545,0.605082072214453,0.6026350871941497,0.6375025967144713,0.4527617991000454,0.43734381746300055,0.133220330828981,0.7606400720573262,0.751224858555468,0.04823875960708131,0.6480264827152832,0.6348721380113148,0.5148601586806673,0.09198532072617072,0.3182879496239079,0.00017679418892877792,0.0008212341272344503,0.00014253597299021905,4.27877283049551e-08,7.799647692766453e-07,2.3971151564274114e-08,0.1622372434630994,0.5856804321165728,0.31182127146280547,0.2189331707929125,Sad
